aX,aY,aZ,gX,gY,gZ
0.006,0.049,0.993,7.324,16.968,-5.737
0.015,0.054,0.977,3.052,20.264,-6.226
0.028,0.062,0.966,-1.709,23.254,-7.446
0.022,0.061,0.958,-4.272,26.306,-9.338
0.004,0.055,0.922,-3.235,28.809,-10.986
-0.004,0.044,0.914,1.648,27.710,-11.047
-0.005,0.037,0.910,6.165,25.269,-9.338
0.023,0.057,0.928,11.719,23.071,-6.226
0.036,0.066,0.949,15.503,21.729,-3.357
0.010,0.068,0.926,14.343,22.766,-2.014
0.005,0.085,0.874,11.658,24.536,-1.526
0.022,0.133,0.862,11.719,25.269,-1.892
0.039,0.166,0.878,14.221,27.649,-3.723
0.027,0.161,0.854,16.052,34.729,-6.226
0.003,0.150,0.826,20.508,45.105,-7.874
0.048,0.135,0.745,31.677,58.289,-6.042
0.081,0.020,0.604,40.405,70.496,-1.648
0.111,-0.122,0.434,38.940,78.796,8.545
0.118,-0.212,0.079,19.226,84.167,20.813
0.136,-0.115,-0.590,-48.096,77.759,26.489
0.230,-0.092,-0.615,-143.066,45.654,16.663
0.230,-0.119,-0.973,-157.043,22.400,5.798
0.271,-0.103,-1.214,-148.987,-1.343,1.099
0.303,-0.065,-1.280,-135.010,-28.931,3.723
0.366,0.013,-1.311,-133.789,-54.688,8.118
0.433,0.068,-1.201,-143.433,-77.820,5.920
0.446,0.124,-0.967,-157.104,-98.511,-1.709
0.431,0.173,-0.714,-189.697,-115.967,-9.949
0.417,0.236,-0.497,-234.009,-126.587,-15.320
0.363,0.250,-0.293,-260.315,-129.639,-10.498
0.313,0.414,-0.067,-246.765,-131.104,2.869
0.071,0.420,0.110,-234.497,-136.719,-9.277
-0.116,0.490,0.219,-251.282,-136.108,-16.602
-0.251,0.643,0.335,-237.427,-121.277,-10.376
-0.396,0.779,0.568,-177.673,-119.690,-13.184
-0.595,0.931,0.900,-79.590,-126.831,-21.362
-0.812,0.738,1.500,42.175,-127.380,-44.556
-0.903,0.825,1.660,169.861,-75.195,-61.096
-0.999,0.785,1.949,270.813,-62.195,-66.467
-1.080,0.653,2.382,283.691,-106.750,-84.290
-1.172,0.727,2.830,218.628,-137.207,-82.764
-1.052,0.543,3.101,125.732,-127.502,-86.365
-0.973,0.547,3.287,78.003,-111.755,-46.692
-0.862,0.501,3.773,74.951,-154.724,4.395
-0.704,0.577,3.841,60.486,-135.986,57.556
-0.696,0.539,3.800,0.305,-91.858,74.341
-0.771,0.587,3.643,-79.163,-55.664,57.373
-0.731,0.711,3.258,-120.239,-8.179,44.800
-0.738,0.841,2.947,-114.075,23.132,42.053
-0.717,0.913,2.731,-91.797,46.082,38.879
-0.646,0.972,2.402,-92.163,85.266,21.423
-0.558,1.009,2.116,-81.665,113.342,-2.625
-0.469,0.974,1.931,-45.166,124.817,-26.855
-0.317,0.907,1.787,-1.648,133.362,-39.124
-0.185,0.869,1.640,31.799,137.024,-35.522
-0.081,0.841,1.482,50.598,140.198,-33.447
0.022,0.800,1.265,70.557,142.151,-27.649
0.114,0.778,1.116,108.459,124.695,-9.949
0.158,0.700,1.096,156.555,96.741,13.306
0.134,0.576,1.033,175.659,83.252,20.264
0.153,0.509,0.971,165.405,76.355,27.466
0.073,0.434,0.938,138.123,71.655,33.142
0.117,0.364,0.799,120.544,74.219,38.696
0.102,0.345,0.718,109.131,65.735,51.208
0.105,0.323,0.734,86.670,46.631,60.364
0.156,0.323,0.755,50.232,36.743,59.448
0.183,0.353,0.732,16.724,34.485,49.561
0.208,0.325,0.663,4.639,35.278,33.813
0.222,0.274,0.630,18.921,37.537,24.231
0.214,0.210,0.585,36.377,40.405,21.851
0.203,0.149,0.525,39.734,44.434,22.156
0.178,0.093,0.417,37.231,51.086,24.353
0.156,0.038,0.294,37.598,51.208,23.010
0.153,-0.004,0.223,48.279,31.921,17.700
0.159,-0.017,0.136,63.293,16.235,19.592
0.173,-0.004,0.057,75.806,9.338,26.062
0.198,0.014,-0.020,67.993,2.747,28.625
0.208,0.033,-0.041,46.387,-7.568,25.879
0.202,0.042,-0.026,33.630,-17.090,21.240
0.223,0.046,0.008,36.499,-25.269,18.433
0.235,0.041,0.083,42.725,-33.997,17.761
0.240,0.035,0.159,37.476,-41.016,14.893
0.230,0.035,0.225,27.893,-46.265,9.216
0.201,0.036,0.290,23.193,-50.354,1.709
0.167,0.032,0.367,24.658,-54.565,-5.371
0.136,0.039,0.456,29.602,-57.739,-10.559
0.110,0.030,0.566,36.499,-60.547,-14.771
0.055,0.010,0.709,42.236,-61.523,-18.311
-0.004,-0.004,0.815,32.593,-57.495,-20.874
-0.056,0.009,0.878,9.766,-48.096,-23.010
-0.080,0.030,0.912,-7.080,-38.330,-22.705
-0.082,0.043,0.945,-12.634,-31.189,-19.592
-0.068,0.044,0.996,-6.592,-27.405,-14.465
-0.048,0.034,1.036,2.625,-24.170,-9.949
-0.021,0.017,1.082,10.681,-20.996,-7.324
-0.007,-0.001,1.096,12.939,-16.724,-5.920
-0.001,-0.000,1.085,9.521,-13.000,-4.944
-0.016,-0.005,1.091,8.484,-10.376,-3.418
-0.026,0.007,1.062,5.798,-6.958,-1.221
-0.019,0.024,1.028,4.028,-3.967,0.977
-0.016,0.031,0.993,3.235,-2.441,2.808
-0.007,0.039,0.966,3.052,-2.380,3.723
0.006,0.047,0.946,0.977,-2.136,3.418
0.014,0.059,0.926,-4.822,-2.136,2.258
0.025,0.075,0.907,-10.254,-2.075,1.038
0.027,0.089,0.901,-9.460,-2.869,-0.183
0.015,0.082,0.901,-5.615,-4.639,-1.648
0.003,0.072,0.899,-6.104,-6.592,-3.662
-0.007,0.061,0.901,-10.437,-8.911,-5.188
-0.017,0.043,0.902,-10.864,-11.719,-5.127
-0.018,0.029,0.917,-7.141,-15.076,-3.784
-0.005,0.034,0.937,-6.592,-18.005,-2.869
0.006,0.042,0.962,-5.981,-19.958,-3.784
-0.000,0.047,0.974,-4.089,-20.813,-5.310
0.007,0.045,0.985,-1.587,-20.569,-6.104
0.016,0.040,1.005,0.061,-20.569,-5.920
0.016,0.043,1.006,-3.662,-20.142,-6.226
0.004,0.036,1.008,-7.385,-18.555,-6.470
-0.006,0.033,0.999,-9.399,-15.869,-5.249

0.009,0.098,0.950,0.122,-2.319,-1.099
0.011,0.096,0.964,0.977,-2.930,-1.160
0.023,0.102,0.973,1.892,-3.296,-0.732
0.020,0.101,0.981,2.136,-3.479,-1.038
0.018,0.102,0.974,0.427,-2.258,-1.221
0.012,0.100,0.953,-1.038,-0.732,-0.854
0.007,0.104,0.928,0.610,0.549,-0.061
0.007,0.108,0.913,5.127,1.221,0.977
0.013,0.114,0.906,7.263,0.427,1.648
0.014,0.104,0.907,3.662,-0.610,0.427
0.011,0.099,0.914,3.113,-1.526,-0.610
0.005,0.083,0.916,4.883,-1.587,-1.038
-0.010,0.051,0.923,4.395,-1.160,-0.793
-0.032,0.009,0.905,-0.122,-0.305,-0.122
-0.089,-0.070,0.897,-2.747,0.244,2.014
-0.172,-0.134,0.858,-4.333,0.427,6.836
-0.212,-0.134,0.792,-4.944,-0.977,14.160
-0.211,-0.086,0.737,2.075,-5.554,22.095
-0.156,0.005,0.683,13.367,-12.268,28.015
-0.115,0.102,0.590,16.174,-17.883,28.625
-0.062,0.203,0.496,3.540,-21.118,24.902
0.016,0.255,0.418,-21.729,-21.362,17.151
0.109,0.281,0.228,-59.509,-15.259,6.165
0.164,0.220,0.093,-76.416,-6.531,-2.991
0.205,0.087,-0.030,-76.233,0.366,-5.188
0.244,-0.047,-0.245,-88.013,7.080,-3.662
0.278,-0.170,-0.482,-102.905,11.047,1.160
0.290,-0.257,-0.736,-111.328,10.315,8.667
0.261,-0.287,-1.074,-126.770,1.343,14.465
0.189,-0.239,-1.455,-148.376,-19.226,17.822
-0.132,-0.140,-1.721,-172.913,-54.749,16.602
0.329,0.166,-1.785,-184.387,-99.426,14.771
0.136,0.383,-1.640,-171.387,-144.287,8.545
-0.019,0.614,-1.325,-132.812,-182.739,-5.493
-0.169,0.883,-0.876,-80.872,-213.257,-20.691
-0.363,1.031,-0.173,-24.109,-245.483,-51.758
-0.566,1.047,0.577,-25.452,-251.892,-84.229
-0.682,1.026,1.323,-66.162,-215.088,-106.689
-0.898,0.830,2.074,-108.582,-177.185,-127.319
-1.103,0.506,2.665,-125.732,-122.498,-151.306
-1.075,0.371,3.006,-99.426,-54.993,-122.742
-1.102,0.276,3.080,-54.871,-26.245,-61.951
-0.963,0.236,2.911,-26.794,-3.540,-5.676
-0.982,0.353,2.906,25.635,-11.902,61.829
-1.067,0.551,2.763,56.519,-22.949,103.760
-0.887,1.056,2.388,61.279,5.188,140.503
-0.774,1.432,2.297,82.764,17.212,167.542
-0.742,1.398,2.437,91.003,3.235,117.981
-0.678,1.428,2.671,67.322,-5.432,87.463
-0.678,1.338,2.937,12.634,-0.854,51.880
-0.695,1.008,3.185,-43.396,11.780,0.610
-0.750,0.798,3.342,-94.604,27.344,-32.532
-0.689,0.639,3.458,-117.065,46.936,-32.959
-0.640,0.497,3.547,-132.263,53.467,-33.875
-0.555,0.641,3.340,-177.979,72.571,-36.133
-0.503,0.748,3.030,-172.058,89.539,-44.800
-0.455,0.783,2.689,-116.211,102.478,-52.612
-0.380,0.918,2.310,-65.918,106.995,-52.246
-0.269,1.036,1.897,-18.250,110.168,-49.133
-0.182,1.019,1.543,41.870,109.619,-47.974
-0.069,1.042,1.216,106.934,112.366,-29.602
0.014,0.986,0.860,158.386,112.000,-18.738
0.077,0.953,0.549,185.852,103.516,-15.442
0.137,0.901,0.287,211.670,91.919,-12.329
0.219,0.824,0.130,247.742,77.271,-10.254
0.284,0.726,0.062,272.339,64.209,-9.033
0.175,0.513,0.154,247.681,55.420,-12.329
0.173,0.311,0.117,183.167,63.721,-15.686
0.143,0.224,0.073,114.685,68.787,-2.869
0.094,0.145,0.103,79.773,62.622,12.634
0.071,0.081,0.120,73.181,59.570,23.560
0.020,0.071,0.130,78.552,53.650,27.649
0.020,0.075,0.117,85.938,47.363,24.170
0.050,0.080,0.160,81.787,45.532,19.531
0.072,0.125,0.188,38.757,44.983,12.756
0.106,0.188,0.196,-19.104,46.326,4.822
0.105,0.217,0.213,-46.265,47.119,0.671
0.090,0.238,0.243,-35.339,43.884,-3.052
0.103,0.238,0.291,-4.700,36.804,-6.287
0.098,0.221,0.367,17.029,21.118,-9.094
0.095,0.178,0.486,22.766,8.911,-9.094
0.098,0.157,0.515,3.479,9.705,-10.010
0.087,0.156,0.503,-28.503,15.442,-12.573
0.084,0.131,0.498,-39.551,16.846,-15.564
0.072,0.105,0.516,-30.884,14.832,-16.479
0.030,0.088,0.533,-17.578,12.695,-16.602
-0.032,0.076,0.492,-12.207,11.353,-17.700
-0.068,0.082,0.450,-6.592,7.690,-18.860
-0.083,0.060,0.462,11.780,0.122,-18.188
-0.080,0.051,0.473,28.198,-7.935,-14.771
-0.075,0.065,0.471,39.490,-16.052,-10.193
-0.035,0.094,0.504,51.086,-24.658,-5.310
0.004,0.128,0.535,50.659,-31.128,-1.892
0.033,0.163,0.572,44.922,-35.095,-0.977
0.052,0.159,0.647,42.542,-37.720,-3.235
0.070,0.136,0.686,27.771,-38.452,-7.996
0.045,0.120,0.710,6.104,-37.109,-15.015
0.007,0.096,0.733,-9.216,-36.011,-23.621
-0.030,0.077,0.757,-19.226,-35.095,-31.006
-0.053,0.058,0.778,-21.423,-36.499,-35.645
-0.083,0.056,0.770,-18.555,-41.931,-39.734
-0.082,0.064,0.792,-9.766,-50.720,-43.335
-0.066,0.074,0.842,-0.549,-60.181,-44.861
-0.045,0.099,0.880,2.319,-67.322,-44.312
-0.033,0.131,0.933,7.385,-71.167,-42.664
0.001,0.096,1.050,11.658,-72.632,-41.931
-0.011,0.097,1.075,-3.662,-67.993,-40.710
-0.029,0.082,1.160,-17.273,-58.899,-38.391
-0.047,0.062,1.184,-22.705,-44.495,-33.447
-0.064,0.075,1.180,-23.193,-28.809,-22.583
-0.053,0.099,1.166,-16.479,-15.869,-9.094
-0.044,0.142,1.104,-7.507,-6.409,3.296
-0.054,0.179,1.030,3.174,-2.197,10.376
-0.074,0.206,0.986,13.062,-3.235,12.695
-0.078,0.220,0.954,19.470,-5.432,13.184
-0.074,0.224,0.955,28.198,-7.080,14.526
-0.048,0.221,0.976,38.086,-7.690,15.930
-0.026,0.235,0.995,37.964,-7.446,16.541
-0.006,0.230,1.018,32.166,-8.606,15.137

-0.028,0.093,0.955,-10.986,6.653,1.648
-0.021,0.095,0.936,-5.859,5.066,1.648
-0.017,0.094,0.919,-1.282,2.747,1.587
-0.008,0.097,0.906,2.319,1.282,1.282
-0.005,0.104,0.896,7.202,0.061,1.343
-0.007,0.102,0.897,13.428,-1.282,1.282
-0.004,0.096,0.912,13.733,-2.136,0.427
0.000,0.100,0.916,4.578,-1.709,-0.549
0.000,0.094,0.921,-0.732,-0.671,-1.465
0.001,0.097,0.918,0.244,0.000,-1.282
0.016,0.100,0.922,2.747,0.732,-1.343
0.023,0.085,0.932,3.174,1.526,-2.380
0.023,0.077,0.915,-1.526,3.662,-3.906
0.012,0.080,0.880,-6.226,6.775,-4.944
-0.007,0.081,0.838,-4.395,8.911,-5.188
-0.014,0.098,0.809,0.671,9.949,-4.883
-0.025,0.114,0.768,2.930,10.559,-5.371
-0.017,0.124,0.740,4.944,11.292,-6.775
0.008,0.130,0.725,8.118,12.573,-7.202
0.028,0.102,0.628,10.742,17.212,-6.958
0.071,0.079,0.449,11.658,25.452,-4.639
0.099,-0.025,0.148,10.742,34.912,1.709
0.050,-0.058,-0.301,-9.460,45.288,9.033
-0.009,-0.051,-0.913,-53.711,54.077,13.123
-0.177,-0.090,-1.562,-120.422,51.880,7.690
-0.206,-0.172,-2.090,-174.011,34.424,-3.845
-0.085,-0.116,-2.198,-190.308,-18.311,-7.080
-0.067,-0.062,-1.958,-175.659,-83.313,5.066
0.019,0.062,-1.452,-148.865,-149.109,3.174
-0.044,0.124,-0.842,-122.803,-206.055,-15.442
-0.120,0.310,-0.400,-128.174,-216.431,-20.325
-0.250,0.554,0.072,-126.526,-204.712,-19.897
-0.372,0.732,0.594,-96.252,-203.369,-30.090
-0.517,0.796,1.019,-58.289,-178.162,-52.673
-0.567,0.815,1.448,-2.808,-148.926,-54.138
-0.624,0.809,1.894,53.772,-146.606,-54.993
-0.595,0.784,2.299,83.313,-132.263,-57.068
-0.792,0.568,2.635,75.867,-95.032,-62.012
-0.784,0.433,2.717,44.739,-50.293,-47.363
-0.702,0.427,2.907,31.311,-57.129,24.963
-0.924,0.172,3.160,61.462,-73.608,84.106
-0.980,0.166,3.306,146.973,-97.778,136.108
-0.834,-0.050,3.206,145.386,-85.449,160.583
-0.906,-0.253,3.230,86.060,-27.649,134.949
-0.824,-0.264,3.152,36.865,19.470,131.165
-0.746,-0.183,3.067,46.143,28.687,137.024
-0.677,-0.118,2.903,66.345,35.461,117.859
-0.703,-0.076,2.812,77.087,44.739,82.886
-0.646,-0.083,2.691,57.007,49.744,43.396
-0.594,-0.044,2.588,32.654,41.748,14.282
-0.544,0.034,2.458,21.301,54.016,-5.981
-0.468,0.077,2.304,38.086,71.106,-19.470
-0.397,0.143,2.181,66.467,86.487,-27.954
-0.328,0.161,2.067,88.745,103.943,-33.386
-0.244,0.175,1.921,96.436,123.108,-32.288
-0.192,0.210,1.779,92.957,135.925,-22.949
-0.116,0.258,1.609,88.623,136.963,-7.812
-0.066,0.277,1.493,77.637,132.324,3.052
-0.012,0.261,1.426,64.392,130.371,5.676
0.042,0.279,1.331,49.744,127.319,13.672
0.098,0.325,1.251,40.955,118.652,27.283
0.135,0.323,1.137,36.438,113.037,25.330
0.140,0.358,1.081,31.006,103.943,20.996
0.184,0.315,0.933,31.799,102.478,14.771
0.233,0.291,0.744,25.208,104.431,18.738
0.195,0.295,0.558,-2.380,95.825,26.794
0.176,0.280,0.429,-17.761,82.397,31.006
0.175,0.256,0.254,-10.681,71.533,34.363
0.159,0.227,0.140,9.094,60.425,32.715
0.131,0.165,-0.004,23.682,56.458,26.733
0.089,0.081,-0.138,32.288,56.335,19.958
0.045,0.019,-0.244,22.461,61.646,16.174
0.023,-0.021,-0.361,-2.014,58.105,13.611
-0.022,-0.071,-0.292,-30.396,48.401,10.925
-0.085,-0.122,-0.301,-68.848,39.612,9.399
-0.109,-0.153,-0.194,-94.666,35.217,11.597
-0.075,-0.188,-0.161,-96.863,41.687,17.151
-0.035,-0.204,0.016,-82.031,39.429,19.287
0.028,-0.187,0.166,-63.782,12.329,12.512
0.116,-0.141,0.332,-49.316,-28.687,3.235
0.192,-0.054,0.491,-32.593,-43.457,5.737
0.191,-0.006,0.580,-21.301,-49.438,1.221
0.181,0.020,0.674,-12.756,-55.420,-4.883
0.142,0.064,0.718,-3.784,-54.016,-8.606
0.118,0.154,0.698,2.441,-45.654,-10.071
0.093,0.246,0.654,1.587,-35.034,-12.695
0.064,0.278,0.651,5.859,-27.893,-18.005
0.047,0.259,0.676,9.216,-23.437,-23.682
0.012,0.203,0.711,4.150,-20.203,-28.503
-0.052,0.118,0.754,-7.080,-18.372,-31.311
-0.097,0.050,0.808,-13.367,-17.761,-30.884
-0.124,0.007,0.856,-10.132,-18.433,-26.917
-0.140,-0.037,0.896,3.418,-22.339,-21.423
-0.135,-0.058,0.935,20.386,-29.236,-15.076
-0.114,-0.071,0.967,33.142,-38.574,-10.620
-0.073,-0.096,1.003,41.504,-47.241,-7.568
-0.020,-0.110,1.020,40.100,-52.368,-4.456
0.036,-0.088,1.046,30.884,-52.795,0.000
0.078,-0.065,1.056,18.555,-47.363,2.930
0.099,-0.016,1.021,3.540,-38.635,4.395
0.089,0.032,0.974,-3.174,-31.067,5.249
0.066,0.061,0.926,-2.808,-25.635,5.249
0.050,0.081,0.896,0.183,-22.949,5.554
0.047,0.089,0.889,2.502,-22.644,5.554
0.058,0.083,0.924,2.258,-23.437,2.380
0.079,0.069,0.963,-6.653,-23.376,-4.639
0.091,0.060,0.975,-20.630,-20.996,-11.108
0.090,0.043,0.987,-25.635,-18.921,-14.832
0.083,0.037,0.989,-22.522,-15.869,-16.174
0.083,0.042,0.989,-14.343,-13.672,-15.015
0.063,0.040,0.993,-1.953,-13.550,-12.695
0.041,0.033,1.001,8.118,-13.733,-11.108
0.052,0.022,1.021,11.108,-13.916,-9.277
0.047,0.005,1.038,4.822,-14.099,-7.629
0.050,0.022,1.021,-8.789,-12.817,-6.287
0.059,0.054,0.996,-17.761,-10.742,-4.456
0.052,0.069,0.978,-16.113,-9.277,-2.625
0.037,0.078,0.969,-9.827,-8.118,-2.319
0.013,0.088,0.955,-8.301,-7.202,-2.930

0.000,-0.016,1.016,8.789,16.418,-19.104
-0.005,-0.024,1.014,11.475,17.639,-17.334
-0.006,-0.025,0.984,13.611,19.043,-15.015
-0.016,-0.031,1.027,23.132,18.494,-11.902
-0.013,-0.047,0.986,20.325,19.287,-9.338
-0.020,-0.040,0.958,10.559,20.996,-6.836
-0.017,-0.027,0.938,9.399,20.752,-4.517
-0.016,-0.030,0.908,10.254,18.799,-2.380
-0.007,-0.020,0.890,11.169,15.503,0.000
0.007,-0.006,0.875,10.986,12.512,2.197
0.032,0.016,0.864,10.254,10.071,3.601
0.058,0.050,0.846,8.606,9.216,4.211
0.110,0.060,0.851,4.822,9.338,4.089
0.159,0.067,0.853,-5.554,11.780,3.235
0.192,0.056,0.814,-15.381,18.311,0.610
0.243,0.011,0.768,-16.418,26.001,1.221
0.261,-0.054,0.665,-15.381,32.043,7.751
0.223,-0.188,0.515,-20.447,34.851,15.198
0.115,-0.373,0.287,-32.532,39.734,26.062
-0.036,-0.524,0.017,-53.467,39.063,44.312
-0.070,-0.445,-0.257,-98.083,31.555,67.505
-0.165,-0.303,-0.561,-150.757,15.930,84.778
-0.142,-0.120,-0.868,-175.293,1.953,92.407
-0.102,0.078,-1.108,-172.363,-23.743,91.553
-0.031,0.286,-1.209,-172.791,-61.279,83.496
0.032,0.468,-1.209,-154.236,-101.440,71.533
0.064,0.640,-1.029,-126.587,-140.808,56.702
0.017,0.877,-0.831,-107.971,-164.734,38.452
-0.040,1.030,-0.615,-87.463,-173.157,12.085
-0.094,0.990,-0.226,-35.522,-173.462,-14.893
-0.261,0.731,0.212,-8.606,-171.936,-38.940
-0.197,0.487,0.578,-44.067,-158.020,-45.471
-0.460,0.317,0.852,-60.852,-138.855,-20.386
-0.523,0.127,1.106,-20.447,-133.789,-11.658
-0.615,0.163,1.262,37.537,-132.324,-7.690
-0.609,0.362,1.443,79.346,-122.559,-4.822
-0.757,0.547,1.798,116.516,-119.751,-13.611
-0.734,0.461,2.018,123.169,-114.197,-38.086
-0.792,0.603,2.322,84.595,-124.207,-15.747
-0.748,0.653,2.663,71.716,-133.545,30.701
-0.919,0.402,2.948,66.528,-127.319,48.157
-1.085,0.145,3.072,37.109,-117.126,52.734
-1.168,-0.013,3.325,19.165,-114.746,61.829
-1.227,-0.160,3.489,14.771,-87.708,69.946
-1.097,-0.369,3.415,43.945,-57.983,73.486
-0.913,-0.392,3.448,47.791,-28.809,67.810
-0.886,-0.369,3.341,-1.831,18.127,43.274
-0.843,-0.256,3.245,-34.363,53.406,18.127
-0.714,-0.220,3.012,-63.599,65.735,-15.015
-0.627,-0.052,2.756,-72.510,82.153,-41.199
-0.512,0.100,2.535,-47.485,94.910,-50.964
-0.418,0.221,2.302,-14.648,105.652,-57.922
-0.346,0.306,2.078,26.367,118.347,-64.331
-0.237,0.332,1.779,81.543,129.089,-59.692
-0.138,0.353,1.541,136.108,122.375,-36.194
-0.082,0.330,1.311,158.264,112.000,-11.353
-0.033,0.370,1.165,157.654,97.107,20.203
-0.015,0.364,0.993,151.123,92.896,36.743
0.026,0.362,0.838,133.118,88.501,39.429
0.011,0.382,0.781,117.493,81.970,40.649
0.060,0.325,0.670,118.225,84.656,38.086
0.140,0.282,0.576,118.652,88.989,43.640
0.113,0.277,0.568,89.233,78.003,54.749
0.104,0.262,0.549,57.251,68.604,62.439
0.129,0.250,0.488,50.537,66.895,64.392
0.108,0.226,0.429,55.481,65.979,60.120
0.068,0.181,0.340,51.453,68.481,50.598
0.038,0.171,0.196,43.030,73.120,41.321
0.017,0.167,0.095,36.621,69.885,32.837
-0.015,0.202,-0.036,19.470,59.265,24.231
-0.019,0.206,-0.120,5.005,44.312,14.587
-0.049,0.157,-0.137,3.601,25.696,4.089
-0.018,0.118,-0.079,8.301,4.395,-3.479
0.035,0.092,0.035,9.033,-12.085,-7.996
0.073,0.079,0.125,3.967,-21.851,-11.475
0.108,0.084,0.216,-1.648,-24.963,-15.503
0.114,0.069,0.298,-2.686,-24.597,-22.217
0.080,0.038,0.360,-6.653,-21.362,-30.212
0.034,-0.013,0.423,-9.460,-16.296,-36.255
0.006,-0.046,0.459,-14.954,-11.414,-39.307
-0.016,-0.059,0.505,-16.846,-8.972,-40.100
-0.033,-0.070,0.551,-9.460,-10.132,-39.490
-0.047,-0.080,0.610,2.747,-13.428,-38.025
-0.051,-0.107,0.674,11.536,-16.724,-35.645
-0.055,-0.111,0.724,7.751,-18.127,-32.410
-0.084,-0.095,0.757,-2.136,-16.907,-28.870
-0.099,-0.073,0.770,-7.080,-14.709,-26.001
-0.107,-0.057,0.812,-6.897,-13.367,-23.804
-0.099,-0.034,0.838,-10.071,-11.841,-22.095
-0.091,-0.021,0.867,-12.756,-9.949,-21.240
-0.089,-0.029,0.894,-12.085,-8.423,-20.752
-0.078,-0.055,0.931,-9.644,-7.324,-19.653
-0.063,-0.083,0.967,-9.460,-6.470,-17.700
-0.072,-0.116,0.987,-13.062,-5.798,-16.052
-0.081,-0.151,1.002,-12.268,-5.676,-14.221
-0.088,-0.168,1.017,-4.700,-6.348,-11.230
-0.088,-0.169,1.011,2.747,-6.653,-7.996
-0.083,-0.165,1.017,6.226,-6.531,-4.944
-0.080,-0.141,0.983,2.502,-5.371,-1.892
-0.085,-0.123,0.958,3.357,-4.028,1.221
-0.080,-0.110,0.948,6.287,-4.456,3.906
-0.059,-0.093,0.956,3.235,-5.798,4.456
-0.052,-0.082,0.957,-7.202,-6.165,2.686
-0.052,-0.063,0.954,-15.381,-6.165,1.160
-0.041,-0.044,0.955,-18.127,-6.592,0.793
-0.030,-0.045,0.972,-14.954,-7.874,1.038
-0.017,-0.041,0.991,-13.123,-8.606,1.343
-0.015,-0.033,1.006,-13.733,-7.935,1.282
-0.018,-0.035,1.021,-12.268,-7.385,0.671
-0.022,-0.049,1.054,-6.897,-7.263,0.244
-0.016,-0.060,1.079,-5.493,-6.531,-0.061
-0.009,-0.061,1.090,-7.507,-5.066,0.671
-0.012,-0.038,1.065,-10.986,-3.296,2.014
-0.006,-0.010,1.038,-9.216,-2.625,3.357
-0.008,0.007,1.014,-4.822,-2.258,4.333
-0.016,0.023,0.986,-0.793,-2.258,4.639
-0.020,0.039,0.958,4.639,-2.380,4.028
-0.015,0.035,0.955,10.193,-2.930,3.235
-0.010,0.017,0.961,9.094,-3.235,2.258

0.010,0.006,1.020,12.939,-1.709,0.366
0.002,-0.013,1.022,14.343,-1.587,0.183
0.010,0.002,1.000,13.367,-0.610,1.160
0.007,0.015,0.976,10.437,-0.061,1.343
-0.002,0.031,0.960,6.348,-0.122,0.793
-0.003,0.028,0.962,6.104,-0.305,0.488
-0.005,0.024,0.962,2.625,0.305,-0.061
-0.001,0.014,0.973,-0.061,0.549,-0.366
0.002,0.008,0.973,-0.305,1.038,-0.244
0.005,0.005,0.973,2.441,1.648,0.366
0.022,0.015,0.966,4.517,2.075,1.038
0.033,0.022,0.954,4.639,2.869,1.282
0.031,0.018,0.930,4.456,4.150,0.916
0.029,0.020,0.899,5.615,4.944,1.221
0.034,0.016,0.874,8.911,5.249,1.526
0.029,0.025,0.828,10.742,5.493,1.892
-0.009,0.027,0.757,8.606,5.249,2.686
-0.033,0.012,0.717,2.869,5.737,5.920
-0.094,-0.071,0.673,-1.099,9.033,11.719
-0.187,-0.141,0.549,-7.812,13.550,15.503
-0.230,-0.135,0.377,-41.687,22.095,23.804
-0.294,-0.085,-0.022,-95.947,31.677,29.846
-0.241,-0.023,-0.357,-103.882,26.978,34.912
-0.243,0.035,-0.705,-87.524,15.015,35.828
-0.212,0.009,-1.092,-82.153,3.418,31.799
-0.181,-0.105,-1.337,-77.087,-22.949,31.738
-0.208,-0.051,-1.388,-56.213,-65.491,43.091
0.106,-0.054,-1.420,-14.832,-114.319,35.095
0.094,0.213,-1.242,-0.427,-163.757,15.869
0.167,0.424,-1.065,-31.799,-188.599,14.160
0.260,0.713,-0.766,-79.529,-211.060,-2.563
0.291,1.008,-0.414,-101.196,-222.168,-15.137
0.375,1.165,-0.050,-88.257,-228.027,-32.227
0.378,1.260,0.375,-64.941,-223.694,-52.368
0.289,1.271,0.754,-46.814,-193.909,-73.730
0.145,1.047,1.282,-42.603,-153.198,-93.689
-0.242,0.759,1.682,-91.858,-125.793,-110.535
-0.633,0.652,1.902,-180.298,-97.900,-114.380
-1.079,0.589,2.146,-237.854,-69.092,-116.394
-1.293,0.404,2.462,-256.836,-44.617,-116.821
-1.526,0.396,2.796,-236.511,-28.259,-77.698
-1.594,0.415,3.274,-197.693,-50.903,-16.479
-1.739,0.514,3.655,-152.283,-29.663,31.311
-1.699,0.564,3.899,-102.173,8.240,59.570
-1.475,0.469,4.000,-44.312,37.354,78.064
-1.308,0.419,4.000,-27.039,77.271,98.450
-1.068,0.557,4.000,-45.166,132.324,97.290
-0.910,0.721,3.882,-47.607,170.227,69.092
-0.766,0.884,3.518,-22.766,184.570,39.612
-0.586,0.986,3.153,7.080,178.711,11.475
-0.451,1.074,2.802,28.625,161.621,-9.399
-0.335,1.121,2.457,46.814,154.907,-27.832
-0.256,1.107,2.075,74.707,153.870,-44.617
-0.244,0.993,1.742,112.061,151.978,-57.739
-0.185,0.888,1.451,144.958,151.794,-65.735
-0.113,0.912,1.122,174.255,149.719,-59.448
-0.043,0.888,0.815,193.726,134.460,-49.988
0.017,0.898,0.560,203.735,110.229,-39.673
0.073,0.867,0.293,210.327,89.722,-34.912
0.124,0.791,0.103,214.233,72.144,-28.442
0.145,0.756,0.002,209.595,57.739,-15.686
0.186,0.568,-0.035,199.219,47.119,-26.794
0.237,0.431,-0.064,174.805,57.739,-17.517
0.250,0.324,0.002,137.024,52.124,-1.099
0.266,0.240,0.125,104.980,27.588,14.404
0.290,0.137,0.190,84.961,27.100,24.963
0.253,0.043,0.257,57.861,25.940,28.809
0.196,0.005,0.227,20.081,24.902,26.062
0.148,-0.013,0.173,-2.502,25.574,21.118
0.117,-0.009,0.124,-7.812,21.301,16.663
0.070,-0.003,0.114,-12.390,12.207,12.207
0.059,0.013,0.102,-13.672,1.160,8.850
0.065,0.033,0.144,-7.751,-11.047,7.202
0.068,0.044,0.195,-4.456,-22.583,7.141
0.059,0.056,0.248,-3.662,-30.945,9.583
0.053,0.081,0.305,-1.770,-36.194,12.573
0.057,0.104,0.359,2.075,-39.124,13.611
0.051,0.088,0.406,2.869,-41.199,9.766
0.021,0.072,0.441,-2.869,-43.884,2.258
0.010,0.049,0.483,-6.897,-48.401,-7.080
-0.005,0.034,0.506,-14.648,-52.307,-16.541
-0.024,0.016,0.558,-17.761,-55.481,-25.269
-0.036,-0.001,0.620,-15.808,-55.908,-32.227
-0.051,-0.017,0.669,-11.841,-53.589,-35.400
-0.061,-0.017,0.702,-5.859,-50.476,-34.180
-0.073,0.006,0.716,2.686,-46.509,-28.625
-0.069,0.045,0.739,15.076,-42.175,-22.339
-0.062,0.063,0.776,21.851,-37.048,-18.372
-0.047,0.107,0.807,14.343,-30.334,-16.907
-0.042,0.148,0.822,1.587,-23.437,-18.860
-0.044,0.168,0.858,-7.507,-18.921,-22.644
-0.055,0.158,0.902,-12.390,-13.977,-26.733
-0.064,0.129,0.929,-15.869,-7.751,-28.992
-0.070,0.100,0.944,-16.113,-2.319,-27.832
-0.091,0.054,0.961,-10.986,0.732,-24.109
-0.112,0.015,0.984,-3.418,1.587,-19.043
-0.119,-0.003,0.985,-0.061,0.427,-14.343
-0.108,-0.011,1.015,2.014,-2.136,-10.986
-0.093,-0.017,1.051,2.258,-3.235,-8.423
-0.094,-0.027,1.058,1.770,-2.380,-5.249
-0.125,-0.015,1.003,-1.953,1.221,-0.061
-0.095,0.040,0.943,-8.911,5.615,8.850
-0.051,0.094,0.932,-9.338,5.737,17.639
-0.019,0.115,0.958,-3.906,2.319,20.081
-0.009,0.124,0.969,-5.127,-1.709,15.869
-0.004,0.125,0.988,-7.751,-5.188,9.399
-0.005,0.128,0.990,-9.827,-6.714,4.517
-0.008,0.127,0.990,-10.925,-7.446,2.136
-0.014,0.127,0.989,-6.714,-8.484,1.648
-0.026,0.125,1.003,1.282,-10.315,2.625
-0.028,0.130,1.024,5.676,-12.390,3.174
-0.027,0.140,1.042,3.235,-13.428,1.343
-0.031,0.136,1.057,2.808,-13.611,-1.709
-0.033,0.128,1.061,5.859,-13.184,-4.028
-0.027,0.115,1.075,10.193,-12.695,-4.456
-0.012,0.114,1.064,11.902,-11.780,-3.601
0.009,0.112,1.059,15.686,-10.864,-2.197
0.025,0.106,1.063,18.066,-9.521,-0.977
0.030,0.106,1.041,13.184,-6.592,-1.282

-0.015,0.051,0.965,5.981,-3.723,0.427
-0.011,0.051,0.962,4.395,-3.601,0.244
-0.007,0.048,0.966,2.014,-3.357,-0.183
-0.009,0.053,0.961,-1.526,-2.747,-0.793
-0.009,0.056,0.959,-1.831,-2.380,-0.977
-0.013,0.045,0.967,-0.061,-2.380,-0.793
-0.020,0.042,0.955,-2.808,-1.160,-0.671
-0.021,0.047,0.942,-3.662,-0.305,-0.366
-0.017,0.045,0.933,0.122,-0.366,0.305
-0.012,0.040,0.929,4.150,-0.671,0.732
-0.009,0.037,0.921,5.493,-1.099,0.488
-0.010,0.033,0.907,4.639,-0.854,-0.244
-0.009,0.032,0.885,3.174,-0.244,-0.427
-0.005,0.026,0.869,5.432,-0.244,-0.122
0.013,0.007,0.856,8.484,-0.183,0.488
0.065,-0.021,0.824,7.507,1.404,1.709
0.127,-0.042,0.763,3.967,4.639,3.906
0.184,-0.073,0.688,-0.366,8.667,8.606
0.198,-0.103,0.561,-15.381,13.123,13.000
0.186,-0.138,0.441,-39.917,18.127,15.381
0.176,-0.049,0.168,-83.313,23.987,19.348
0.125,-0.022,-0.012,-131.897,23.071,18.799
0.088,-0.043,-0.338,-185.059,18.127,10.681
0.031,-0.060,-0.602,-226.807,10.010,-0.122
-0.018,-0.094,-0.804,-236.267,-11.292,-10.864
0.014,-0.106,-1.014,-230.347,-41.992,-14.832
0.051,-0.107,-1.096,-208.923,-78.308,-17.090
0.072,-0.126,-1.028,-163.208,-110.413,-21.362
0.097,-0.057,-0.907,-128.784,-130.798,-25.574
0.050,0.168,-0.716,-114.319,-140.808,-32.654
-0.078,0.353,-0.585,-88.440,-141.052,-45.105
-0.051,0.543,-0.422,-58.289,-153.076,-53.345
-0.085,0.685,-0.120,-66.467,-180.725,-72.327
-0.165,0.822,0.281,-79.956,-196.716,-84.351
-0.285,0.813,0.755,-93.262,-190.918,-100.830
-0.466,0.754,1.135,-123.291,-163.696,-108.276
-0.768,0.620,1.601,-163.391,-144.470,-101.990
-1.039,0.649,1.932,-183.838,-89.355,-74.829
-0.901,0.734,1.918,-159.790,-7.568,-39.429
-1.079,0.855,2.126,-138.489,-16.235,-15.381
-1.082,0.896,2.242,-107.605,-46.814,31.067
-1.069,1.348,2.352,-53.650,-100.281,128.235
-1.227,1.605,2.618,-7.324,-180.298,191.589
-1.296,1.752,2.784,-18.433,-175.110,166.077
-1.294,1.879,2.926,-48.950,-100.159,123.718
-1.281,1.889,3.116,-48.828,-27.466,90.393
-1.247,1.813,3.312,-3.113,6.775,81.421
-1.136,1.557,3.368,63.477,32.288,78.613
-1.374,1.427,3.413,110.413,47.668,57.312
-1.200,1.084,3.336,138.000,73.120,26.917
-1.294,0.979,3.225,180.664,111.450,13.977
-1.240,0.853,3.035,203.064,152.954,-2.014
-0.954,0.710,2.854,182.251,190.796,-27.222
-0.723,0.697,2.588,160.828,228.943,-41.443
-0.535,0.753,2.203,161.499,271.667,-46.875
-0.366,0.798,1.789,171.814,297.852,-60.669
-0.186,0.716,1.366,202.942,290.527,-58.655
-0.043,0.719,0.929,246.521,225.647,-8.362
0.012,0.803,0.781,273.071,141.174,48.401
0.078,0.793,0.418,252.502,128.723,46.875
0.160,0.804,0.082,217.590,112.793,46.997
0.158,0.764,-0.146,193.298,96.985,41.016
0.184,0.626,-0.382,184.692,88.013,36.804
0.238,0.582,-0.615,151.062,89.111,45.471
0.256,0.572,-0.607,101.624,54.077,41.443
0.247,0.431,-0.493,67.200,21.790,27.283
0.250,0.288,-0.382,38.269,15.137,15.015
0.261,0.127,-0.237,10.376,18.188,5.066
0.193,-0.011,-0.121,-14.771,39.429,3.479
0.062,-0.174,-0.097,-39.490,62.744,1.160
0.019,-0.302,-0.028,-53.162,48.523,-4.578
-0.022,-0.315,0.086,-58.350,17.212,-0.671
-0.053,-0.309,0.129,-47.119,7.324,9.277
-0.032,-0.267,0.197,-27.527,-3.174,15.808
-0.010,-0.215,0.239,-20.691,-12.268,16.907
0.006,-0.148,0.284,-9.827,-21.973,17.761
0.056,-0.052,0.322,16.418,-29.541,19.043
0.117,0.033,0.373,50.781,-32.288,17.639
0.160,0.111,0.404,71.838,-31.189,11.963
0.195,0.150,0.448,73.242,-28.687,2.686
0.197,0.154,0.499,50.293,-24.048,-9.949
0.168,0.165,0.519,21.667,-20.813,-23.621
0.137,0.168,0.555,8.423,-20.325,-34.363
0.087,0.121,0.638,7.202,-21.973,-40.588
0.023,0.052,0.738,5.737,-23.254,-43.823
-0.017,-0.007,0.819,3.601,-22.217,-43.823
-0.054,-0.059,0.880,2.136,-20.447,-39.795
-0.076,-0.090,0.940,4.700,-19.653,-33.020
-0.087,-0.095,0.986,14.038,-20.020,-26.550
-0.079,-0.110,1.034,22.156,-20.447,-21.240
-0.054,-0.093,1.052,18.616,-18.677,-16.052
-0.021,-0.079,1.065,12.024,-15.564,-11.902
0.007,-0.061,1.056,10.437,-11.414,-7.935
0.028,-0.057,1.045,11.597,-8.179,-4.150
0.043,-0.057,1.027,12.512,-5.493,-0.671
0.028,-0.048,0.993,9.949,-3.601,1.099
0.010,-0.059,0.979,8.545,-3.479,-0.183
-0.006,-0.072,0.971,5.127,-2.869,-2.258
-0.022,-0.079,0.956,2.441,-1.282,-2.808
-0.032,-0.084,0.942,4.700,-0.183,-0.366
-0.042,-0.087,0.934,4.333,0.061,2.747
-0.046,-0.068,0.907,-2.319,-0.427,3.967
-0.038,-0.068,0.908,-4.639,-2.991,4.211
-0.027,-0.066,0.910,-5.188,-6.348,3.967
-0.008,-0.067,0.930,-1.160,-9.460,3.479
0.008,-0.066,0.957,7.874,-12.207,3.540
0.038,-0.051,0.989,16.418,-14.954,4.211
0.055,-0.038,1.017,21.912,-16.113,3.967
0.066,-0.028,1.046,24.231,-16.296,3.662
0.077,-0.010,1.046,23.376,-15.381,3.113
0.075,-0.013,1.063,26.184,-14.282,2.930
0.066,-0.001,1.046,20.691,-12.329,2.563
0.060,0.023,1.024,10.803,-9.277,1.160
0.060,0.035,1.005,6.592,-6.775,-0.183
0.058,0.033,0.994,1.709,-4.761,-1.099
0.045,0.018,0.989,-2.380,-2.502,-1.892
0.032,0.003,0.975,-4.395,-0.061,-2.197
0.028,-0.018,0.966,-1.160,0.793,-1.709
0.020,-0.046,0.965,3.479,0.549,-1.404

0.030,-0.018,0.981,1.343,-3.479,-0.427
0.018,-0.021,0.974,-6.409,-1.770,-0.610
0.007,-0.035,0.978,-8.911,-0.183,-0.427
0.001,-0.040,0.971,-8.240,1.038,0.488
-0.006,-0.040,0.961,-7.507,1.404,0.977
-0.014,-0.035,0.950,-4.089,1.099,1.587
-0.008,-0.037,0.950,0.244,-0.061,1.831
-0.010,-0.034,0.946,3.845,-1.221,1.770
-0.010,-0.031,0.945,7.751,-1.953,1.709
0.003,-0.031,0.957,9.338,-2.563,1.892
0.015,-0.017,0.948,3.357,-2.502,2.014
0.022,-0.002,0.938,-0.671,-2.014,2.075
0.022,0.013,0.923,1.892,-1.892,2.625
0.029,0.024,0.923,6.042,-2.319,2.747
0.040,0.021,0.927,5.981,-2.136,2.197
0.039,0.015,0.920,2.136,-1.221,1.709
0.036,0.008,0.912,-0.854,0.549,1.831
0.041,0.009,0.902,-1.770,2.197,2.991
0.043,0.012,0.890,-3.479,3.174,3.906
0.028,0.011,0.864,-6.104,4.517,3.845
0.052,0.004,0.824,-3.357,6.470,4.578
0.098,0.017,0.755,0.732,7.690,6.958
0.141,-0.008,0.691,2.136,9.399,9.216
0.153,-0.000,0.515,-11.780,17.517,13.367
0.153,0.034,0.232,-45.776,28.381,18.799
0.029,-0.258,-0.128,-82.947,37.659,20.874
-0.080,-0.375,-0.534,-115.295,44.006,32.532
-0.399,-0.479,-1.254,-143.982,50.842,46.082
-0.777,-0.394,-1.945,-161.377,41.626,50.598
-0.560,-0.062,-2.462,-130.615,-4.272,50.659
-0.424,0.295,-2.602,-40.833,-102.295,52.551
-0.231,0.732,-2.313,23.254,-192.932,26.062
-0.127,1.128,-1.666,-18.677,-235.413,-18.860
-0.114,1.273,-0.868,-118.652,-245.728,-61.890
-0.202,1.430,-0.169,-206.604,-241.089,-93.384
-0.285,1.350,0.578,-268.555,-226.318,-119.812
-0.376,1.165,1.250,-293.152,-182.800,-128.967
-0.577,0.896,1.850,-312.988,-137.878,-118.896
-0.735,0.565,2.450,-317.566,-103.699,-94.177
-0.795,0.373,2.843,-288.269,-67.200,-56.763
-0.568,0.203,2.936,-226.440,-25.391,-17.090
-0.591,0.289,2.898,-136.292,-3.906,39.368
-0.554,0.422,2.877,-78.247,-15.381,93.933
-0.332,0.848,2.695,-37.781,-24.048,152.771
-0.354,1.187,2.633,-10.498,-20.813,167.297
-0.478,1.329,2.481,-2.625,16.907,125.305
-0.500,1.442,2.451,20.447,28.259,97.717
-0.516,1.419,2.584,58.899,25.024,87.097
-0.580,1.256,2.776,77.454,36.011,64.819
-0.616,1.041,2.913,73.730,48.462,31.982
-0.583,0.833,2.980,71.045,51.758,7.690
-0.573,0.603,3.179,71.106,46.692,-2.869
-0.454,0.622,3.083,95.581,69.641,20.508
-0.329,0.480,3.076,99.609,98.999,29.541
-0.245,0.489,2.926,77.209,96.008,14.404
-0.197,0.518,2.702,59.692,110.901,10.925
-0.139,0.535,2.442,65.247,120.667,-1.526
-0.078,0.587,2.188,71.472,118.958,-14.526
-0.038,0.641,1.946,80.933,113.159,-24.841
-0.006,0.710,1.646,83.984,111.328,-33.691
-0.005,0.737,1.388,90.149,108.887,-47.546
0.010,0.715,1.076,116.333,106.995,-56.335
0.069,0.671,0.814,145.691,101.624,-49.805
0.121,0.699,0.587,168.579,92.712,-22.949
0.106,0.672,0.412,167.847,79.895,-10.071
0.107,0.627,0.287,148.254,65.125,-10.559
0.178,0.591,0.197,135.742,52.246,-9.155
0.127,0.475,0.237,136.963,41.077,-6.165
0.251,0.358,0.160,143.311,44.678,-2.380
0.280,0.319,0.138,122.009,42.786,8.911
0.286,0.318,0.101,83.862,32.471,19.104
0.220,0.245,0.103,56.641,32.959,20.935
0.109,0.165,0.065,37.170,32.043,16.113
0.006,0.134,0.038,18.799,28.870,8.606
-0.056,0.094,-0.005,13.733,23.560,-1.282
-0.094,0.046,0.034,21.973,12.146,-9.949
-0.089,0.025,0.089,35.461,-5.249,-15.503
-0.047,0.023,0.168,49.438,-20.569,-17.883
-0.000,0.020,0.258,61.218,-30.090,-18.921
0.055,-0.022,0.403,64.270,-38.391,-18.921
0.080,-0.044,0.494,38.208,-39.307,-20.264
0.095,-0.022,0.561,6.409,-34.851,-21.484
0.068,-0.015,0.632,-0.366,-31.555,-23.865
0.007,-0.040,0.699,10.254,-30.029,-27.771
-0.027,-0.087,0.763,22.400,-28.992,-31.250
-0.043,-0.091,0.815,26.611,-26.367,-31.860
-0.063,-0.099,0.847,27.771,-21.423,-31.250
-0.054,-0.139,0.872,20.142,-13.550,-29.236
-0.068,-0.139,0.835,2.319,-3.906,-24.902
-0.068,-0.117,0.795,-6.470,3.479,-19.043
-0.073,-0.089,0.756,-3.784,6.836,-13.123
-0.069,-0.060,0.731,3.296,6.958,-8.850
-0.060,-0.036,0.714,8.728,5.371,-6.714
-0.043,-0.018,0.705,11.597,3.235,-6.531
-0.039,-0.016,0.713,13.611,1.282,-6.775
-0.015,-0.025,0.741,12.634,-0.610,-6.775
-0.007,-0.012,0.762,3.418,-0.977,-6.226
0.001,0.000,0.782,-7.568,-0.122,-6.287
0.008,0.017,0.784,-17.944,1.038,-6.409
0.002,0.021,0.800,-21.667,1.587,-5.676
-0.003,0.007,0.809,-21.545,1.404,-5.005
-0.010,-0.002,0.807,-21.057,0.244,-4.272
-0.010,-0.001,0.818,-18.555,-2.197,-3.479
0.001,-0.008,0.842,-17.517,-5.432,-3.723
0.006,0.009,0.855,-23.315,-8.423,-5.066
0.010,0.042,0.870,-24.902,-11.475,-7.324
0.009,0.053,0.893,-19.470,-14.771,-9.094
0.007,0.038,0.922,-13.000,-17.395,-9.766
0.005,0.020,0.948,-10.803,-18.433,-9.338
0.001,0.023,0.955,-15.320,-18.005,-8.362
-0.000,0.035,0.957,-20.203,-17.639,-7.324
-0.003,0.025,0.979,-18.738,-17.944,-6.348
-0.011,0.013,0.998,-18.921,-17.578,-5.371
-0.008,0.016,1.010,-20.874,-16.174,-4.333
0.006,0.014,1.029,-16.357,-15.869,-2.441
0.006,0.003,1.051,-7.812,-16.541,-0.793
0.007,-0.010,1.073,-0.671,-17.456,0.610
-0.003,-0.012,1.085,2.563,-17.456,2.258
-0.007,0.007,1.079,4.272,-17.273,3.967

0.004,0.018,0.938,1.282,2.686,3.418
0.016,0.017,0.931,0.061,2.686,3.906
0.010,0.022,0.917,-0.305,2.808,4.211
0.009,0.034,0.903,1.465,2.502,4.517
0.015,0.037,0.908,4.517,1.526,4.700
0.034,0.038,0.915,6.531,0.671,4.761
0.055,0.036,0.918,6.104,0.549,4.883
0.079,0.051,0.907,5.371,1.892,4.639
0.082,0.053,0.885,3.357,3.052,3.296
0.088,0.062,0.859,0.977,4.272,2.197
0.089,0.072,0.826,1.038,5.127,1.404
0.091,0.092,0.793,2.136,5.859,0.610
0.091,0.091,0.771,6.104,5.981,-0.244
0.099,0.081,0.756,4.883,6.714,-1.221
0.094,0.096,0.705,-2.991,9.460,-1.343
0.080,0.087,0.659,-1.587,12.146,-1.038
0.099,0.077,0.600,1.282,15.503,1.831
0.109,0.085,0.510,-5.676,19.043,4.700
0.085,0.069,0.419,-12.756,21.484,5.310
0.071,0.062,0.278,-22.217,23.621,5.066
0.031,0.015,0.125,-35.095,23.499,5.188
-0.003,-0.001,-0.075,-54.321,24.902,5.188
-0.024,-0.020,-0.238,-75.378,24.048,6.897
-0.080,-0.024,-0.508,-99.731,21.240,8.911
-0.131,-0.027,-0.669,-114.319,11.719,11.353
-0.195,-0.044,-0.854,-112.976,-1.099,13.306
-0.261,-0.059,-0.977,-99.792,-21.362,17.517
-0.104,0.042,-1.007,-87.830,-53.040,22.461
-0.086,0.138,-0.940,-101.563,-84.045,21.301
-0.062,0.320,-0.693,-124.634,-111.450,18.188
-0.075,0.433,-0.544,-114.990,-137.146,5.493
-0.075,0.519,-0.280,-92.590,-159.729,-6.226
-0.104,0.603,0.008,-97.290,-168.579,-17.090
-0.080,0.741,0.409,-101.074,-187.561,-21.729
-0.128,0.779,0.875,-106.079,-200.073,-34.729
-0.208,0.789,1.317,-116.638,-184.326,-43.091
-0.353,0.719,1.796,-134.399,-161.194,-48.462
-0.638,0.663,2.179,-171.204,-136.108,-49.805
-0.834,0.484,2.501,-202.637,-97.900,-42.725
-1.136,0.629,2.732,-190.918,-63.110,3.479
-1.380,0.690,3.044,-139.709,-75.928,54.016
-1.402,0.744,3.386,-101.746,-70.740,86.365
-1.327,0.734,3.657,-83.496,-45.471,104.614
-1.195,0.768,3.905,-74.768,-16.724,121.216
-1.022,0.847,4.000,-50.232,8.972,129.456
-0.785,0.964,4.000,-3.540,47.607,122.314
-0.562,1.016,3.771,48.523,93.445,100.342
-0.379,1.099,3.443,96.313,118.408,73.181
-0.247,1.117,3.156,130.066,114.502,44.373
-0.159,1.168,2.858,139.038,105.957,14.648
-0.073,1.185,2.463,140.320,107.971,-13.611
-0.025,1.121,2.153,146.179,110.962,-35.950
0.052,1.136,1.793,160.889,114.807,-36.438
0.047,1.129,1.559,171.265,107.361,-25.635
0.096,1.026,1.330,158.569,104.126,-41.565
0.127,0.967,1.135,140.564,105.042,-52.246
0.087,0.865,0.934,125.732,108.521,-49.194
0.043,0.781,0.725,109.436,109.985,-39.856
0.014,0.700,0.534,96.436,106.262,-34.302
-0.058,0.583,0.470,93.811,97.656,-31.982
0.000,0.455,0.321,106.262,97.778,-26.855
0.029,0.363,0.253,110.596,91.492,-10.986
0.012,0.325,0.229,97.168,77.942,7.324
0.045,0.281,0.203,81.421,68.420,20.691
0.059,0.254,0.203,69.214,59.021,26.550
0.051,0.200,0.231,53.406,52.246,23.437
0.008,0.154,0.226,25.513,59.204,15.930
-0.010,0.118,0.188,1.099,69.275,8.728
-0.017,0.079,0.209,-8.850,76.172,3.601
-0.025,0.057,0.180,-17.151,84.961,5.676
-0.006,-0.006,0.257,-10.986,72.449,3.052
0.076,0.008,0.242,5.371,34.302,-5.066
0.118,0.041,0.246,-1.526,22.034,-1.770
0.134,0.046,0.269,-15.259,17.639,-2.380
0.122,0.046,0.287,-26.428,12.268,-6.531
0.106,0.020,0.337,-27.954,7.935,-9.949
0.078,-0.002,0.384,-22.156,2.869,-12.451
0.078,-0.011,0.439,-10.681,-2.075,-15.076
0.078,-0.019,0.490,0.977,-5.981,-17.944
0.073,-0.017,0.503,4.211,-6.836,-20.996
0.072,-0.004,0.497,6.653,-6.226,-22.827
0.062,-0.008,0.480,13.306,-6.042,-22.888
0.048,0.014,0.460,21.301,-6.775,-20.996
0.024,0.054,0.430,26.672,-7.629,-19.226
0.015,0.073,0.436,27.832,-9.155,-18.005
0.007,0.072,0.465,18.494,-10.376,-16.968
0.007,0.088,0.490,2.502,-10.254,-15.808
0.032,0.102,0.518,-4.028,-11.292,-15.503
0.053,0.096,0.585,-1.099,-14.709,-16.724
0.071,0.069,0.665,2.258,-17.639,-19.104
0.071,0.047,0.738,1.770,-17.944,-20.020
0.063,0.029,0.792,0.305,-17.029,-18.372
0.061,0.010,0.838,0.977,-15.503,-14.648
0.046,0.010,0.874,0.305,-14.160,-9.766
0.045,0.019,0.896,-0.671,-12.939,-5.554
0.037,0.057,0.894,-5.249,-12.024,-1.282
0.045,0.093,0.901,-6.958,-13.000,-0.488
0.045,0.106,0.934,-2.930,-16.479,-2.563
0.069,0.108,0.963,-0.549,-19.531,-4.700
0.090,0.104,1.003,2.380,-21.912,-5.066
0.109,0.097,1.029,4.272,-22.400,-4.395
0.136,0.089,1.051,4.211,-21.545,-3.418
0.138,0.081,1.058,3.601,-20.081,-2.197
0.145,0.070,1.070,3.052,-18.311,-1.282
0.129,0.070,1.061,-1.404,-16.418,-0.732
0.113,0.074,1.055,-4.028,-15.259,-0.366
0.087,0.075,1.049,-0.854,-15.503,0.061
0.077,0.080,1.044,4.456,-16.602,0.122
0.096,0.059,1.073,10.986,-18.738,0.122
0.104,0.042,1.086,7.751,-18.677,-0.122
0.108,0.047,1.076,-1.587,-16.052,0.305
0.114,0.050,1.064,-3.418,-13.367,1.526
0.116,0.052,1.049,-2.319,-11.292,3.113
0.116,0.066,1.022,-3.296,-9.705,4.150
0.108,0.077,0.996,-1.831,-8.972,4.395
0.090,0.091,0.972,1.404,-9.216,4.578
0.074,0.115,0.957,3.113,-9.705,4.028
0.068,0.137,0.946,2.686,-10.559,3.052
0.083,0.137,0.962,3.357,-11.719,2.563

0.093,0.035,1.155,27.893,2.869,-6.470
0.112,0.027,1.159,19.714,7.996,-6.897
0.125,0.010,1.156,15.198,13.489,-6.714
0.148,0.008,1.138,13.184,19.287,-5.432
0.154,0.004,1.121,18.311,23.010,-3.662
0.170,0.016,1.083,24.353,27.405,-1.770
0.183,0.044,1.034,26.367,32.104,-0.854
0.176,0.049,1.001,27.954,35.706,-2.808
0.161,0.056,0.950,25.574,39.001,-5.737
0.136,0.059,0.892,26.184,41.931,-9.155
0.110,0.071,0.834,29.419,43.884,-12.024
0.091,0.063,0.788,31.067,45.349,-14.526
0.060,0.077,0.717,25.940,46.143,-16.052
0.031,0.095,0.645,22.034,44.983,-17.395
0.016,0.093,0.598,24.963,41.626,-17.822
-0.001,0.063,0.564,25.818,37.231,-17.151
-0.002,0.036,0.547,18.066,32.898,-15.686
-0.007,0.036,0.511,4.211,29.297,-13.733
0.012,0.028,0.483,-1.282,23.682,-11.597
0.019,0.002,0.451,-2.258,17.151,-8.911
0.039,-0.054,0.406,-4.333,12.146,-4.089
0.064,-0.108,0.320,-12.939,8.118,6.287
0.057,-0.079,0.161,-33.142,0.854,20.935
-0.007,-0.080,-0.069,-48.828,-10.925,32.593
-0.051,-0.032,-0.272,-61.401,-25.452,40.527
-0.027,0.064,-0.604,-69.458,-43.091,48.157
-0.038,0.140,-0.826,-75.134,-69.397,44.983
-0.092,-0.021,-1.170,-40.588,-112.366,37.598
-0.145,-0.076,-1.330,-28.320,-158.936,29.785
-0.143,-0.029,-1.452,-94.543,-190.369,25.146
-0.097,0.121,-1.488,-147.156,-205.444,31.982
-0.030,0.310,-1.317,-167.236,-210.937,35.095
0.031,0.507,-1.075,-171.387,-215.271,27.039
0.076,0.723,-0.814,-183.899,-219.421,7.507
0.044,0.938,-0.457,-220.520,-220.337,-16.663
-0.076,1.045,-0.048,-261.414,-213.013,-43.945
-0.328,1.206,0.345,-294.983,-192.993,-67.017
-0.579,1.376,0.750,-329.712,-168.945,-89.478
-0.860,1.423,1.270,-333.557,-153.748,-111.511
-0.896,1.479,1.922,-310.913,-145.020,-123.352
-1.196,1.365,2.695,-272.217,-133.789,-118.958
-1.488,1.052,3.543,-225.647,-103.271,-107.056
-1.267,0.796,3.999,-158.997,-57.922,-67.566
-1.127,0.856,4.000,-60.303,-24.048,31.494
-1.049,0.955,4.000,18.677,19.592,102.539
-1.044,1.181,4.000,73.914,56.641,137.573
-0.991,1.225,4.000,125.305,88.684,135.071
-1.043,1.218,3.924,188.171,99.548,117.981
-0.951,1.185,3.707,235.657,117.432,107.971
-0.782,1.085,3.516,248.108,131.897,93.384
-0.684,0.909,3.400,230.957,120.667,62.622
-0.484,0.902,3.132,142.029,122.070,44.006
-0.360,0.983,2.876,87.219,125.122,33.081
-0.261,0.990,2.624,84.106,129.639,15.869
-0.165,0.974,2.329,92.468,138.000,-1.892
-0.145,0.906,2.049,105.713,147.339,-14.343
-0.119,0.815,1.711,107.239,158.508,-18.555
-0.069,0.760,1.411,94.971,162.537,-16.296
-0.117,0.727,1.113,75.378,159.790,-9.155
-0.093,0.752,0.772,67.383,155.945,-4.517
-0.024,0.788,0.432,75.317,146.912,-2.808
-0.045,0.739,0.241,100.220,127.808,-6.470
0.076,0.635,-0.014,130.127,115.967,-18.127
0.142,0.564,-0.146,160.767,95.093,-17.273
0.195,0.549,-0.208,167.358,66.162,-1.831
0.274,0.532,-0.236,153.625,43.457,11.047
0.247,0.487,-0.227,125.122,38.818,14.832
0.246,0.425,-0.204,92.590,31.982,9.460
0.233,0.326,-0.175,64.331,27.649,0.854
0.210,0.189,-0.132,40.588,25.757,-8.667
0.177,0.084,-0.124,10.254,23.071,-15.564
0.157,0.006,-0.098,-7.935,16.968,-18.555
0.102,-0.075,-0.034,-12.085,6.958,-19.836
0.021,-0.137,0.042,-18.311,-2.625,-18.433
-0.071,-0.181,0.122,-25.452,-11.536,-15.076
-0.108,-0.196,0.203,-30.273,-19.775,-11.719
-0.098,-0.214,0.318,-21.912,-28.259,-6.104
-0.056,-0.198,0.421,-6.958,-34.424,2.197
0.001,-0.165,0.500,6.531,-37.781,11.047
0.068,-0.123,0.568,15.320,-39.673,17.822
0.123,-0.083,0.638,21.851,-38.879,22.156
0.169,-0.059,0.686,20.203,-35.706,22.705
0.194,-0.000,0.685,6.409,-30.029,19.714
0.203,0.046,0.697,-0.671,-27.954,14.221
0.181,0.068,0.688,-2.380,-28.259,7.019
0.132,0.072,0.701,1.953,-29.541,-0.061
0.081,0.074,0.696,5.432,-30.701,-5.127
0.034,0.060,0.705,7.019,-31.616,-6.470
0.004,0.063,0.722,4.211,-32.288,-5.005
0.009,0.084,0.740,3.174,-32.654,-2.869
0.019,0.094,0.767,6.775,-33.691,-1.953
0.013,0.090,0.802,8.240,-33.936,-3.418
0.016,0.078,0.854,5.859,-33.203,-5.188
0.015,0.070,0.885,0.610,-31.372,-6.409
0.008,0.082,0.901,-3.296,-28.259,-7.690
0.007,0.085,0.921,-0.793,-25.879,-8.423
0.010,0.082,0.954,3.601,-23.804,-8.484
0.015,0.075,0.979,2.991,-21.423,-9.155
0.004,0.057,0.982,-1.343,-18.372,-9.766
-0.002,0.044,0.975,-2.502,-15.137,-9.155
-0.012,0.031,0.962,2.075,-13.062,-7.324
-0.027,0.034,0.953,5.127,-11.536,-5.371
-0.037,0.063,0.931,2.808,-10.376,-4.700
-0.052,0.076,0.930,0.183,-10.254,-5.310
-0.055,0.080,0.941,-5.066,-10.742,-6.836
-0.052,0.083,0.953,-12.817,-11.169,-8.484
-0.043,0.076,0.961,-14.648,-11.536,-8.606
-0.025,0.060,0.977,-9.277,-12.817,-7.446
0.003,0.045,0.994,-3.845,-13.733,-5.737
0.010,0.038,1.001,-2.930,-13.489,-4.883
0.015,0.038,1.000,-2.014,-12.634,-4.395
0.020,0.029,1.001,-0.610,-11.902,-3.784
0.005,0.039,0.996,-3.418,-10.925,-3.357
-0.016,0.061,0.978,-5.554,-9.949,-3.601
-0.028,0.066,0.974,-3.540,-10.437,-3.540
-0.014,0.060,0.994,-0.793,-11.169,-2.686
-0.010,0.058,1.000,-2.197,-10.681,-2.197
-0.017,0.064,1.004,-2.319,-9.766,-1.953
-0.016,0.078,1.001,-0.732,-9.033,-1.404

0.029,0.050,0.962,4.578,-4.028,0.732
0.028,0.049,0.959,4.456,-3.906,0.488
0.029,0.050,0.958,2.747,-3.723,-0.061
0.030,0.042,0.953,1.831,-3.357,-0.366
0.028,0.037,0.955,1.099,-2.991,-0.732
0.026,0.043,0.947,-1.282,-2.502,-1.038
0.021,0.044,0.947,-1.587,-2.441,-1.404
0.018,0.036,0.951,-1.465,-2.441,-1.709
0.014,0.038,0.946,-4.150,-1.770,-1.770
0.010,0.037,0.935,-2.808,-1.465,-1.343
0.015,0.036,0.929,1.160,-1.648,-0.610
0.025,0.033,0.930,3.479,-2.075,-0.488
0.025,0.029,0.915,1.587,-1.587,-1.038
0.032,0.024,0.897,0.977,-0.305,-1.770
0.037,0.021,0.874,1.587,1.343,-1.282
0.040,0.021,0.821,-0.183,3.601,-0.183
0.042,0.003,0.757,-0.916,5.981,1.892
0.064,-0.015,0.683,0.671,7.385,7.385
0.071,-0.072,0.596,3.113,9.644,11.475
0.012,-0.145,0.477,-2.930,12.878,16.235
0.011,-0.296,0.302,-10.803,16.113,28.687
-0.009,-0.407,0.073,-11.047,17.822,48.401
-0.138,-0.501,-0.171,-3.723,15.747,70.923
-0.290,-0.636,-0.431,6.836,11.230,90.637
-0.474,-0.605,-0.774,-11.902,8.118,111.816
-0.660,-0.280,-1.214,-43.518,6.104,127.380
-0.739,0.013,-1.594,-61.279,-14.893,125.977
-0.799,0.388,-1.923,-65.308,-53.345,111.755
-0.575,0.732,-1.969,-34.790,-122.742,76.050
-0.330,1.121,-1.714,-25.879,-214.661,15.259
-0.063,1.464,-1.242,-72.632,-242.310,-19.470
0.163,1.420,-0.575,-100.647,-254.517,-70.740
0.123,1.337,0.010,-115.417,-230.286,-102.600
0.021,1.242,0.652,-121.399,-206.665,-113.525
-0.230,0.864,1.292,-143.799,-204.712,-144.348
-0.548,0.436,1.901,-177.185,-196.167,-158.936
-0.769,0.155,2.396,-188.110,-169.922,-144.470
-0.862,0.031,2.744,-150.879,-128.174,-110.962
-0.842,0.011,2.931,-90.698,-81.482,-75.378
-0.958,0.023,3.131,-35.522,-57.007,-48.828
-0.666,0.091,3.005,11.353,-37.292,-19.714
-0.669,0.298,3.155,54.810,-39.917,46.936
-0.693,0.462,3.250,79.102,-27.100,91.614
-0.515,0.468,3.219,78.125,-2.258,107.178
-0.444,0.308,3.329,68.298,7.996,99.060
-0.474,0.291,3.329,45.715,20.935,98.083
-0.452,0.311,3.295,33.691,44.739,97.290
-0.485,0.296,3.166,37.292,69.885,80.322
-0.579,0.240,3.117,49.622,68.115,49.683
-0.675,0.150,3.036,41.260,62.317,22.217
-0.706,0.036,2.921,15.198,66.467,3.296
-0.713,-0.040,2.737,-11.169,71.045,-3.540
-0.691,-0.048,2.568,-16.296,76.416,-4.211
-0.650,0.012,2.362,-7.141,86.609,-3.723
-0.595,0.086,2.120,11.841,97.351,-4.639
-0.532,0.167,1.903,41.077,102.539,-4.944
-0.453,0.263,1.705,67.200,103.088,-5.249
-0.400,0.323,1.472,83.069,102.051,-7.629
-0.347,0.353,1.218,100.525,102.600,-10.071
-0.319,0.447,0.982,119.690,103.882,-9.705
-0.286,0.461,0.724,126.587,105.408,-18.738
-0.240,0.477,0.479,129.395,107.178,-21.790
-0.189,0.462,0.253,129.089,103.516,-10.986
-0.142,0.505,0.059,115.784,95.459,12.085
-0.071,0.507,-0.054,88.928,80.872,28.748
0.026,0.509,-0.128,58.228,62.805,33.447
0.095,0.508,-0.156,40.405,41.870,34.546
0.136,0.417,-0.128,40.405,22.644,28.687
0.154,0.276,-0.084,39.978,7.324,19.165
0.095,0.228,-0.111,31.372,2.136,12.390
0.039,0.166,-0.146,27.039,-0.793,8.728
0.013,0.144,-0.150,31.311,-7.874,9.033
0.017,0.164,-0.101,41.687,-14.709,15.808
0.094,0.172,-0.041,53.406,-21.729,23.743
0.113,0.194,0.034,49.133,-28.503,27.710
0.104,0.252,0.072,26.184,-28.259,26.672
0.087,0.318,0.079,-2.563,-22.278,22.827
0.018,0.368,0.188,-34.180,-7.935,16.113
-0.014,0.349,0.305,-35.767,-3.357,5.920
-0.011,0.250,0.472,-22.278,-5.615,-6.287
0.020,0.137,0.653,-5.615,-8.545,-15.503
0.034,0.061,0.805,-0.244,-6.104,-20.325
0.047,-0.070,0.914,-3.540,-0.122,-23.254
0.013,-0.169,0.956,-11.047,7.935,-23.987
-0.032,-0.231,0.956,-15.259,14.709,-22.156
-0.082,-0.239,0.910,-11.047,19.958,-19.165
-0.108,-0.249,0.898,0.061,21.301,-16.541
-0.138,-0.212,0.858,1.343,21.484,-15.747
-0.152,-0.167,0.846,1.465,19.592,-15.991
-0.147,-0.133,0.846,6.653,14.709,-15.625
-0.138,-0.087,0.842,8.789,8.911,-14.771
-0.088,-0.059,0.842,10.498,3.479,-14.709
-0.050,-0.069,0.895,13.123,-1.587,-14.954
-0.027,-0.042,0.902,0.244,-4.089,-15.015
0.004,-0.016,0.953,-11.597,-6.104,-14.893
0.036,-0.011,0.958,-20.874,-6.653,-15.381
0.082,0.028,0.990,-26.611,-7.690,-14.526
0.092,0.037,1.023,-35.583,-10.742,-15.564
0.078,0.036,1.056,-42.542,-10.864,-17.944
0.056,0.012,1.097,-42.969,-8.972,-19.043
0.052,-0.026,1.116,-42.053,-5.798,-18.066
0.038,-0.026,1.100,-43.579,-2.686,-14.160
0.018,-0.015,1.081,-42.236,-1.160,-9.583
0.011,0.002,1.057,-35.522,-1.892,-6.287
0.009,0.020,1.038,-23.376,-4.639,-4.822
0.003,0.014,1.052,-14.587,-7.568,-4.700
-0.005,0.042,1.038,-19.653,-8.911,-6.042
0.004,0.055,1.047,-22.522,-10.193,-9.155
-0.015,0.066,1.047,-23.682,-11.780,-12.634
-0.024,0.078,1.062,-25.085,-12.939,-15.320
-0.013,0.089,1.067,-23.071,-13.184,-16.968
-0.014,0.086,1.074,-16.174,-13.123,-16.907
-0.011,0.079,1.075,-8.057,-12.207,-15.564
-0.017,0.079,1.060,-1.038,-10.620,-13.306
-0.029,0.065,1.055,5.981,-9.460,-10.803
-0.024,0.053,1.055,10.071,-8.728,-8.362
-0.018,0.028,1.058,6.592,-7.202,-6.470
-0.022,0.032,1.040,-6.287,-4.456,-5.371
-0.015,0.054,1.018,-15.991,-2.014,-4.395

0.029,-0.004,1.036,6.287,-1.953,-2.258
0.042,-0.007,1.041,1.709,0.061,-2.014
0.046,0.001,1.021,-1.587,2.563,-1.099
0.047,0.014,1.001,-0.244,4.517,-0.366
0.033,0.031,0.977,2.197,5.737,-0.244
0.022,0.039,0.961,4.639,6.104,-1.160
0.010,0.043,0.953,5.615,6.226,-2.319
-0.004,0.041,0.946,6.470,6.042,-3.296
-0.005,0.022,0.950,9.460,5.920,-3.784
0.011,0.002,0.959,9.949,5.981,-3.540
0.024,-0.008,0.959,6.165,6.836,-2.808
0.038,0.005,0.943,2.930,8.789,-2.441
0.042,0.023,0.923,2.625,10.193,-2.502
0.053,0.031,0.912,5.432,10.498,-3.052
0.053,0.030,0.906,7.751,11.292,-4.333
0.046,0.023,0.903,8.301,12.024,-6.775
0.043,0.011,0.902,7.751,12.451,-9.338
0.037,-0.008,0.905,6.470,13.062,-10.742
0.031,-0.020,0.903,4.517,14.587,-10.925
0.031,-0.017,0.896,2.136,16.296,-9.644
0.023,-0.012,0.882,0.610,18.250,-7.935
0.021,0.001,0.875,0.977,19.043,-6.714
0.025,0.001,0.875,3.662,19.043,-5.981
0.026,-0.008,0.887,8.667,19.409,-5.798
0.024,-0.019,0.897,11.292,20.996,-5.371
0.023,-0.026,0.921,10.193,23.621,-4.883
0.040,-0.023,0.909,6.104,28.320,-3.479
0.057,-0.022,0.911,2.014,32.288,-1.892
0.075,-0.029,0.878,-5.859,37.109,-4.028
0.076,-0.034,0.851,-9.705,41.870,-2.014
0.121,-0.086,0.805,-1.526,48.523,3.601
0.187,-0.115,0.675,2.319,56.824,12.878
0.223,-0.150,0.497,-0.549,62.988,24.841
0.202,-0.264,0.297,-8.606,65.186,37.903
0.007,-0.282,0.105,-23.376,66.162,52.612
-0.078,-0.557,-0.260,-42.908,66.040,61.523
-0.424,-0.770,-0.828,-66.528,68.970,98.694
-0.777,-0.310,-1.669,-45.044,59.509,185.608
-0.851,0.117,-2.570,-18.921,6.348,226.562
-0.740,0.548,-2.960,5.554,-78.735,212.769
-0.579,0.989,-2.743,52.795,-185.059,171.204
-0.366,1.512,-2.078,77.576,-281.189,114.014
-0.021,1.755,-1.166,74.707,-352.905,40.894
0.068,1.791,-0.083,-0.244,-379.883,-33.997
0.166,1.794,0.910,-132.874,-356.628,-93.079
0.109,1.565,1.663,-249.451,-316.345,-142.395
-0.200,1.200,2.321,-312.561,-263.977,-169.373
-0.483,0.788,2.647,-321.045,-199.097,-172.058
-0.904,0.200,2.911,-303.833,-145.752,-164.124
-1.292,0.111,2.920,-245.178,-104.370,-105.469
-1.450,0.006,2.993,-155.396,-67.688,-11.597
-1.593,0.002,3.094,-110.718,-28.687,31.677
-2.313,4.000,4.000,-23.743,4.333,39.307
-1.366,-4.000,2.924,1388.977,194.580,-0.305
1.493,0.218,2.978,1576.782,-82.153,338.013
-0.470,-0.642,1.950,385.498,45.715,236.450
-1.823,-1.037,1.674,-315.613,187.439,85.571
-1.649,0.093,2.274,-320.862,55.176,118.164
-1.047,0.150,1.725,6.775,-15.808,38.879
-0.553,-0.535,1.488,356.445,-131.287,22.034
-0.162,-0.872,2.100,287.109,-125.916,57.068
-0.019,-0.851,2.193,-2.869,-41.504,41.321
0.065,-0.646,2.099,-116.516,13.123,15.503
0.051,-0.422,1.961,-106.018,43.213,-21.729
0.118,-0.341,1.779,-56.030,66.833,-70.862
0.073,-0.174,1.463,0.305,98.938,-51.514
0.009,-0.020,1.186,12.207,138.123,-9.705
-0.046,0.078,0.939,19.165,136.475,9.338
-0.153,0.128,0.755,38.025,113.770,13.611
-0.233,0.107,0.558,72.754,94.910,17.273
-0.253,0.056,0.348,112.793,76.050,21.667
-0.248,0.091,0.312,136.414,35.400,24.170
-0.193,0.075,0.261,127.869,6.897,9.155
-0.135,0.032,0.355,110.596,-10.559,-4.028
-0.042,-0.029,0.452,94.604,-30.579,-9.583
0.063,-0.172,0.563,75.134,-43.457,-12.573
0.143,-0.200,0.672,35.889,-48.706,-10.681
0.190,-0.207,0.741,-0.793,-44.861,-4.883
0.218,-0.193,0.782,-23.621,-36.316,-0.549
0.213,-0.231,0.785,-32.349,-26.245,1.282
0.147,-0.240,0.801,-38.879,-14.954,4.578
0.103,-0.178,0.756,-43.335,0.000,10.010
0.072,-0.112,0.686,-44.006,18.738,12.756
0.021,-0.145,0.645,-43.213,36.865,13.550
-0.037,-0.191,0.610,-46.326,49.561,14.832
-0.088,-0.167,0.574,-60.547,61.890,18.616
-0.089,-0.175,0.504,-68.481,74.707,21.729
-0.138,-0.192,0.523,-89.050,92.163,25.513
-0.157,-0.164,0.615,-120.728,108.521,26.917
-0.162,-0.242,0.645,-126.465,101.135,10.803
-0.113,-0.204,0.709,-93.628,48.584,-17.395
-0.035,-0.150,0.691,-70.496,30.884,-10.071
0.070,-0.166,0.736,-58.044,21.912,-7.935
0.103,-0.174,0.771,-63.293,7.996,-17.029
0.084,-0.165,0.811,-69.214,-2.808,-24.780
0.080,-0.121,0.799,-57.678,-7.324,-25.574
0.093,-0.109,0.793,-42.725,-9.766,-22.522
0.096,-0.102,0.794,-35.217,-13.306,-20.325
0.047,-0.118,0.804,-24.475,-14.832,-17.761
-0.002,-0.138,0.814,-13.672,-14.404,-14.282
-0.016,-0.115,0.786,-6.836,-12.024,-10.376
-0.009,-0.090,0.774,-2.136,-10.498,-7.385
-0.005,-0.066,0.770,-4.333,-9.644,-6.409
-0.007,-0.052,0.763,-11.963,-8.972,-7.080
-0.016,-0.073,0.787,-16.357,-9.827,-8.240
-0.026,-0.094,0.812,-16.663,-10.559,-8.362
-0.025,-0.127,0.833,-14.282,-10.742,-6.714
-0.031,-0.141,0.840,-15.808,-10.193,-4.395
-0.036,-0.116,0.836,-20.935,-10.010,-2.197
-0.038,-0.089,0.817,-21.118,-10.071,-1.587
-0.039,-0.092,0.815,-14.343,-10.681,-2.319
-0.033,-0.094,0.833,-10.193,-11.780,-2.869
-0.019,-0.084,0.851,-10.864,-12.817,-4.211
-0.021,-0.076,0.870,-11.292,-14.221,-6.836
-0.024,-0.088,0.887,-12.207,-15.442,-10.132
-0.037,-0.095,0.904,-14.404,-16.479,-12.390
-0.037,-0.111,0.944,-14.343,-18.372,-13.977
-0.033,-0.134,0.976,-15.686,-19.043,-15.137
-0.040,-0.145,0.995,-20.142,-18.372,-15.869

0.045,-0.049,0.923,3.967,6.226,-9.277
0.038,-0.057,0.931,4.028,5.981,-12.878
0.038,-0.058,0.933,-0.732,7.507,-14.221
0.038,-0.058,0.926,-8.057,10.315,-13.733
0.029,-0.074,0.923,-11.963,13.184,-12.268
0.002,-0.072,0.909,-14.343,15.137,-11.475
-0.006,-0.069,0.895,-14.954,15.686,-11.841
-0.027,-0.084,0.902,-9.949,13.123,-10.986
-0.034,-0.113,0.928,-2.563,10.254,-10.620
-0.037,-0.132,0.957,-0.793,8.362,-9.644
-0.034,-0.118,0.958,-7.080,7.874,-7.874
-0.028,-0.117,0.965,-11.902,7.996,-5.920
-0.020,-0.125,0.965,-13.550,9.094,-4.089
0.006,-0.113,0.951,-12.207,9.583,-0.977
0.035,-0.109,0.922,-7.751,10.498,2.563
0.055,-0.099,0.901,-6.348,11.230,5.310
0.069,-0.055,0.808,-9.827,12.451,7.202
0.099,-0.068,0.776,-2.930,11.841,8.911
0.125,-0.047,0.719,-3.479,12.024,11.597
0.175,-0.027,0.635,-11.780,13.550,16.602
0.184,0.041,0.468,-22.339,15.320,20.691
0.189,0.111,0.309,-35.278,15.625,23.193
0.202,0.163,0.090,-34.363,13.367,27.588
0.146,0.171,-0.226,-31.372,14.465,35.400
0.020,0.167,-0.576,-36.377,8.667,50.171
-0.149,0.235,-1.102,-73.730,-5.493,72.693
-0.357,0.346,-1.459,-116.882,-23.254,90.393
-0.435,0.336,-1.605,-134.216,-50.415,94.971
-0.465,0.343,-1.582,-136.475,-87.891,80.994
-0.461,0.415,-1.203,-163.696,-130.859,61.279
-0.454,0.506,-0.795,-177.673,-162.109,42.908
-0.387,0.559,-0.249,-180.542,-189.880,10.681
-0.332,0.645,0.216,-181.335,-205.627,-16.541
-0.316,0.760,0.634,-184.937,-210.510,-33.081
-0.281,0.899,1.077,-182.007,-207.275,-45.776
-0.283,0.949,1.522,-173.218,-191.345,-59.692
-0.392,0.898,1.920,-169.861,-166.931,-73.669
-0.489,0.804,2.276,-169.373,-134.766,-79.651
-0.600,0.702,2.555,-164.001,-100.159,-77.393
-0.841,0.555,2.908,-147.888,-71.838,-71.655
-0.775,0.355,3.061,-124.939,-41.809,-57.373
-0.938,0.316,3.332,-64.270,-12.512,-1.160
-0.903,0.325,3.456,-15.259,14.221,43.396
-0.788,0.396,3.519,3.906,43.884,70.618
-0.673,0.437,3.571,23.071,59.509,71.777
-0.532,0.449,3.564,54.932,74.219,66.284
-0.415,0.500,3.417,77.454,87.769,56.885
-0.294,0.496,3.275,76.050,82.947,23.804
-0.212,0.525,3.029,73.547,90.088,11.597
-0.165,0.568,2.728,80.444,100.342,7.812
-0.142,0.627,2.388,82.031,107.727,5.371
-0.148,0.658,2.057,86.121,113.403,2.380
-0.123,0.661,1.711,98.999,116.760,-2.075
-0.125,0.636,1.371,107.422,119.019,-7.935
-0.104,0.673,1.091,102.600,118.713,-12.878
-0.098,0.706,0.772,93.811,116.821,-16.235
-0.046,0.761,0.537,103.027,108.215,-22.156
0.010,0.714,0.352,118.713,94.788,-41.016
0.058,0.637,0.234,136.902,84.534,-54.688
0.097,0.608,0.136,154.114,70.129,-47.485
0.150,0.561,0.133,162.170,49.805,-33.325
0.162,0.465,0.187,150.085,32.410,-31.128
0.175,0.393,0.208,127.625,24.780,-25.208
0.201,0.349,0.231,109.192,18.921,-16.235
0.200,0.301,0.253,92.957,12.390,-10.498
0.195,0.230,0.302,75.806,5.798,-10.986
0.138,0.146,0.353,56.091,1.709,-14.038
0.095,0.057,0.386,41.626,1.404,-17.334
0.027,0.004,0.422,31.006,2.136,-20.325
-0.028,-0.026,0.418,17.273,5.615,-22.583
-0.053,-0.044,0.413,13.000,6.531,-23.315
-0.074,-0.061,0.432,17.212,2.319,-23.071
-0.103,-0.074,0.469,18.494,-4.517,-23.499
-0.111,-0.064,0.500,13.733,-11.475,-25.024
-0.091,-0.065,0.568,11.902,-19.836,-26.306
-0.062,-0.076,0.656,14.160,-26.855,-26.794
-0.032,-0.100,0.755,14.404,-29.297,-26.672
-0.015,-0.130,0.795,9.644,-25.085,-25.940
0.004,-0.140,0.825,3.845,-18.677,-22.888
-0.019,-0.153,0.840,-2.930,-12.817,-19.470
-0.047,-0.151,0.839,-4.944,-7.935,-15.869
-0.080,-0.145,0.830,-2.075,-5.493,-12.390
-0.094,-0.140,0.826,3.845,-5.249,-9.583
-0.081,-0.118,0.828,10.986,-6.531,-8.057
-0.051,-0.137,0.860,20.203,-9.338,-7.629
-0.031,-0.127,0.867,21.423,-11.047,-7.507
-0.006,-0.103,0.873,19.409,-10.498,-6.226
-0.000,-0.064,0.861,15.503,-8.484,-3.784
0.000,-0.017,0.837,9.399,-5.798,-1.221
-0.003,0.016,0.813,6.470,-4.272,0.610
-0.001,0.029,0.809,6.714,-4.517,1.709
0.009,0.032,0.817,7.812,-5.493,2.014
0.016,0.031,0.839,8.118,-6.409,1.892
0.013,0.034,0.852,6.897,-7.080,1.221
0.019,0.031,0.871,5.249,-7.751,0.305
0.010,0.026,0.889,3.723,-8.728,0.549
0.011,0.030,0.891,3.418,-9.033,1.709
0.015,0.029,0.893,6.348,-10.071,2.747
0.016,0.015,0.908,9.460,-11.597,3.357
0.012,0.017,0.918,6.470,-12.390,3.174
0.010,0.031,0.924,0.977,-12.573,1.953
0.002,0.028,0.940,-1.770,-13.306,0.305
-0.009,0.025,0.946,-5.920,-13.489,-1.099
-0.013,0.021,0.955,-9.094,-13.611,-1.526
-0.015,0.018,0.960,-10.498,-14.160,-1.953
-0.018,0.008,0.975,-8.484,-15.564,-2.380
-0.007,-0.007,0.989,-5.493,-16.663,-2.747
-0.001,-0.023,1.002,-4.639,-17.395,-3.174
-0.002,-0.032,1.026,-4.700,-16.907,-3.174
0.007,-0.035,1.042,-3.357,-14.771,-2.197
0.017,-0.045,1.058,0.122,-12.451,-0.854
0.010,-0.058,1.067,2.930,-10.193,-0.427
0.002,-0.062,1.058,5.676,-8.484,0.183
-0.001,-0.088,1.071,9.521,-8.240,0.916
0.002,-0.067,1.049,4.822,-7.263,1.404
-0.006,-0.054,1.023,0.183,-5.676,1.709
-0.013,-0.034,0.994,1.160,-4.639,2.075
-0.014,-0.022,0.971,3.479,-4.456,2.563
-0.009,-0.002,0.953,3.784,-4.761,2.136

-0.013,-0.028,1.006,0.000,0.244,0.732
-0.013,-0.037,1.004,2.625,-0.061,0.671
-0.018,-0.038,1.001,3.601,-0.305,0.977
-0.015,-0.036,1.001,2.319,-0.122,0.977
-0.023,-0.030,0.997,1.343,0.061,1.282
-0.018,-0.026,1.002,2.075,-0.061,1.526
-0.012,-0.031,1.006,3.479,0.183,1.465
0.007,-0.044,1.032,5.920,0.305,1.709
0.016,-0.059,1.035,6.104,2.380,2.075
0.024,-0.055,1.024,6.165,5.066,3.479
0.029,-0.040,1.003,7.019,6.653,4.211
0.012,-0.038,0.989,7.812,7.812,2.930
0.013,-0.038,0.972,10.193,8.545,2.319
0.014,-0.045,0.962,12.695,8.972,1.892
0.016,-0.047,0.945,9.338,10.254,1.160
0.022,-0.037,0.916,3.540,11.353,0.610
0.026,-0.027,0.891,-0.671,12.024,0.061
0.033,-0.013,0.862,-1.343,11.963,-0.549
0.041,-0.000,0.852,2.319,11.841,-1.587
0.062,0.023,0.848,4.944,12.207,-2.991
0.101,0.062,0.860,4.272,15.198,-5.371
0.158,0.094,0.861,2.136,22.400,-8.606
0.227,0.103,0.833,-3.235,35.339,-11.353
0.286,0.096,0.719,-19.409,56.396,-11.902
0.209,0.037,0.469,-53.162,82.214,-10.010
0.103,-0.089,0.038,-90.027,102.234,0.122
-0.052,-0.119,-0.454,-125.488,108.948,10.071
-0.222,-0.307,-1.074,-144.165,102.966,13.794
-0.368,-0.406,-1.640,-144.470,71.228,24.475
-0.380,-0.357,-2.019,-113.220,25.085,34.302
-0.470,-0.379,-2.128,-76.111,-40.833,38.147
-0.206,-0.104,-1.897,-73.242,-117.981,36.865
-0.142,0.205,-1.656,-110.779,-154.846,16.479
-0.115,0.497,-1.252,-148.132,-166.443,-6.409
-0.379,0.790,-0.833,-167.542,-185.364,-22.583
-0.330,1.113,-0.185,-154.541,-257.385,-45.471
-0.328,1.342,0.507,-149.475,-284.485,-74.707
-0.499,1.419,1.138,-173.645,-245.422,-98.206
-0.697,1.253,1.958,-192.688,-210.999,-97.839
-0.878,0.993,2.664,-183.777,-175.476,-86.426
-1.186,0.750,3.150,-170.166,-134.155,-71.594
-0.930,0.421,3.166,-127.808,-85.754,-31.982
-0.982,0.455,3.400,-42.786,-77.942,73.242
-0.984,0.298,3.523,41.565,-103.027,138.428
-0.921,0.218,3.711,80.261,-75.623,169.006
-0.859,0.141,3.708,85.205,-27.466,172.913
-0.783,0.229,3.562,76.904,6.775,165.833
-0.657,0.388,3.490,99.670,33.875,167.908
-0.538,0.293,3.349,99.609,62.195,131.836
-0.507,0.307,3.161,61.646,72.693,58.350
-0.416,0.305,2.955,48.279,83.130,30.518
-0.395,0.353,2.691,54.260,104.553,25.146
-0.330,0.366,2.380,62.683,128.540,20.203
-0.255,0.393,2.095,71.716,142.029,12.146
-0.203,0.410,1.831,68.909,144.287,1.831
-0.127,0.417,1.567,57.373,140.686,-11.597
-0.089,0.447,1.321,51.819,132.385,-22.095
-0.049,0.473,1.108,57.861,122.559,-26.611
0.004,0.498,0.916,68.726,114.563,-27.466
0.044,0.512,0.754,80.566,106.384,-31.311
0.086,0.499,0.609,92.041,99.304,-37.415
0.091,0.505,0.521,100.708,93.079,-40.039
0.104,0.451,0.430,96.741,89.722,-47.607
0.121,0.399,0.388,98.206,88.135,-45.349
0.146,0.303,0.333,107.300,84.839,-32.410
0.189,0.256,0.389,108.032,71.411,-11.719
0.190,0.180,0.385,88.379,63.782,0.610
0.183,0.178,0.359,60.486,62.927,9.216
0.171,0.159,0.323,41.992,56.274,12.085
0.156,0.125,0.304,31.189,43.640,10.498
0.124,0.088,0.320,20.325,31.067,6.592
0.072,0.051,0.332,-1.221,28.442,1.038
0.036,-0.001,0.348,-15.747,28.503,-3.845
0.021,-0.056,0.388,-18.311,27.161,-6.897
0.020,-0.088,0.429,-17.517,29.541,-8.484
0.025,-0.074,0.430,-12.939,29.236,-6.165
0.035,-0.096,0.427,-3.052,16.846,-10.742
0.047,-0.063,0.462,3.357,2.441,-10.315
0.054,-0.030,0.490,2.258,-5.249,-6.958
0.079,0.001,0.524,-0.427,-11.841,-7.141
0.113,0.003,0.604,2.869,-19.958,-10.559
0.135,-0.014,0.661,2.808,-23.560,-15.137
0.150,-0.034,0.719,-0.366,-22.400,-18.188
0.146,-0.043,0.739,-7.202,-17.151,-17.090
0.119,-0.025,0.730,-16.479,-10.986,-13.428
0.088,-0.002,0.707,-20.386,-6.592,-10.071
0.060,0.009,0.695,-17.517,-5.310,-7.141
0.039,0.020,0.694,-11.963,-6.226,-4.883
0.022,0.031,0.700,-7.202,-7.996,-4.578
0.015,0.042,0.718,-1.831,-10.254,-5.371
0.031,0.035,0.758,2.563,-13.367,-7.202
0.046,0.043,0.791,0.610,-15.442,-9.094
0.055,0.050,0.826,-1.831,-16.968,-10.925
0.065,0.039,0.872,-3.540,-17.395,-12.329
0.077,0.027,0.888,-8.301,-15.503,-13.000
0.098,0.023,0.913,-9.399,-13.672,-12.451
0.090,0.016,0.936,-11.841,-14.771,-12.207
0.085,0.019,0.946,-10.193,-14.587,-10.925
0.067,0.029,0.951,-3.662,-13.367,-8.606
0.060,0.034,0.980,1.160,-12.817,-6.531
0.063,0.051,0.985,-1.221,-11.292,-5.554
0.063,0.051,1.005,-3.357,-9.521,-5.310
0.056,0.056,1.012,-6.409,-8.606,-5.188
0.070,0.054,1.025,-7.080,-8.423,-5.249
0.076,0.032,1.042,-5.249,-8.057,-5.127
0.083,0.022,1.044,-4.883,-7.385,-4.578
0.080,0.014,1.041,-3.967,-6.409,-3.784
0.067,0.009,1.036,-1.160,-5.981,-2.625
0.066,0.011,1.029,2.014,-5.920,-1.465
0.068,-0.003,1.041,5.493,-6.409,-0.916
0.060,0.002,1.035,2.869,-6.348,-0.610
0.056,0.017,1.030,-1.465,-5.981,-0.244
0.050,0.014,1.028,-0.854,-6.226,-0.488
0.058,0.012,1.044,3.967,-7.019,-0.366
0.069,0.003,1.049,7.080,-7.446,-0.488
0.078,-0.016,1.065,9.644,-7.080,-0.366
0.092,-0.019,1.053,7.080,-5.615,0.427
0.108,-0.003,1.038,1.953,-3.235,1.648
0.117,0.018,1.007,-4.333,-0.244,2.197

0.072,-0.017,0.939,-3.540,14.221,2.380
0.080,-0.004,0.917,2.197,10.803,4.089
0.110,0.038,0.885,9.277,6.836,4.639
0.120,0.036,0.876,18.738,2.747,3.723
0.127,0.028,0.884,24.414,-1.038,2.869
0.142,0.042,0.873,21.912,-2.686,2.563
0.148,0.055,0.864,16.907,-3.113,2.319
0.150,0.050,0.853,13.184,-3.601,2.197
0.160,0.037,0.865,13.855,-4.761,1.709
0.167,0.033,0.866,12.207,-4.761,0.549
0.175,0.017,0.878,11.780,-4.639,-0.488
0.176,-0.011,0.885,13.428,-3.296,-1.282
0.164,-0.028,0.874,12.634,-1.587,-1.770
0.156,-0.049,0.876,11.169,-0.061,-2.441
0.150,-0.059,0.869,6.409,1.404,-3.113
0.148,-0.058,0.846,1.160,3.113,-3.723
0.143,-0.066,0.829,0.916,4.150,-4.089
0.134,-0.062,0.798,1.709,4.700,-4.272
0.135,-0.055,0.757,3.174,5.615,-4.089
0.126,-0.075,0.726,7.385,6.287,-3.540
0.136,-0.097,0.666,7.935,7.690,-0.916
0.174,-0.100,0.583,2.991,10.132,4.395
0.149,-0.117,0.460,-3.479,11.047,10.132
0.114,-0.148,0.323,-8.911,10.193,14.160
-0.002,-0.156,0.094,-19.348,8.606,19.470
-0.074,-0.125,-0.171,-25.635,0.610,26.672
-0.246,-0.142,-0.595,-40.405,-11.780,29.846
-0.526,-0.081,-0.969,-36.133,-30.701,30.579
-0.707,-0.044,-1.486,-1.038,-65.186,42.297
-0.653,0.208,-2.001,75.317,-111.450,59.570
-0.733,0.360,-2.004,150.146,-180.176,67.993
-0.257,0.592,-1.657,148.315,-246.338,49.255
0.027,1.109,-1.000,46.997,-278.809,31.677
0.062,1.352,-0.299,-48.767,-292.847,-9.460
-0.026,1.391,0.343,-111.694,-283.752,-64.758
-0.211,1.348,0.989,-174.072,-259.033,-108.704
-0.338,1.101,1.742,-227.783,-230.835,-144.531
-0.606,0.606,2.480,-266.663,-196.960,-155.273
-0.870,0.060,3.048,-309.021,-151.428,-141.663
-1.021,-0.341,3.368,-338.562,-101.563,-105.896
-1.277,-0.704,3.568,-315.186,-62.500,-59.082
-1.167,-0.504,3.556,-210.815,-36.987,17.517
-0.982,-0.290,3.445,-95.581,-31.677,88.440
-0.853,0.020,3.228,-32.349,-7.874,113.098
-0.788,0.302,3.011,-0.061,-0.122,106.812
-0.700,0.425,2.917,39.124,6.714,92.346
-0.636,0.499,2.855,78.186,22.583,85.205
-0.482,0.354,2.854,59.143,25.879,53.589
-0.461,0.379,2.773,19.775,30.823,28.076
-0.437,0.333,2.677,16.907,49.622,21.851
-0.355,0.329,2.584,34.424,62.317,16.968
-0.306,0.312,2.456,47.852,78.064,10.681
-0.276,0.370,2.270,54.016,95.825,6.653
-0.257,0.416,2.046,57.800,112.488,5.005
-0.282,0.441,1.777,52.368,127.014,-2.869
-0.300,0.452,1.529,48.096,137.695,-16.174
-0.321,0.427,1.286,47.546,145.630,-31.738
-0.299,0.393,1.085,53.101,150.452,-45.288
-0.307,0.372,0.860,63.110,149.475,-51.514
-0.247,0.349,0.695,86.060,142.822,-53.040
-0.183,0.313,0.611,107.666,130.188,-48.767
-0.114,0.267,0.555,116.943,119.507,-43.030
-0.030,0.224,0.498,118.530,106.750,-31.006
0.072,0.263,0.493,113.403,86.426,-11.963
0.131,0.254,0.485,103.760,68.115,-7.996
0.187,0.256,0.490,91.919,55.847,-4.822
0.218,0.219,0.480,79.224,49.561,-2.502
0.206,0.209,0.446,57.373,44.800,-1.221
0.168,0.226,0.421,37.842,39.917,-2.136
0.094,0.183,0.378,30.273,36.377,-5.920
-0.024,0.076,0.339,28.687,34.302,-9.277
-0.125,0.015,0.299,20.081,34.119,-9.155
-0.156,0.009,0.252,13.062,33.875,-7.141
-0.134,0.013,0.244,18.616,27.466,-5.310
-0.107,0.024,0.258,26.733,16.052,-4.272
-0.033,0.031,0.333,34.729,4.333,-2.441
0.025,0.036,0.390,34.302,-3.418,0.000
0.047,0.041,0.437,20.325,-6.470,1.465
0.060,0.071,0.476,-1.282,-8.362,0.977
0.086,0.075,0.530,-10.254,-12.451,-2.014
0.068,0.029,0.599,-12.207,-14.893,-5.615
0.054,-0.004,0.643,-21.240,-14.709,-7.996
0.028,-0.022,0.675,-29.053,-13.733,-9.094
0.015,-0.046,0.714,-25.452,-13.977,-9.583
0.021,-0.063,0.760,-12.756,-15.930,-8.728
0.043,-0.068,0.808,0.305,-17.517,-7.141
0.061,-0.086,0.858,7.568,-17.334,-6.042
0.079,-0.087,0.895,5.737,-14.954,-5.005
0.094,-0.062,0.903,0.366,-10.132,-3.418
0.090,-0.033,0.897,-0.671,-5.676,-2.258
0.088,-0.023,0.884,-0.610,-2.747,-1.526
0.079,-0.005,0.881,-5.615,-1.465,-1.221
0.075,0.015,0.884,-10.498,-0.305,-1.343
0.070,0.027,0.882,-11.780,0.793,-2.014
0.062,0.021,0.889,-8.728,1.038,-2.747
0.047,-0.001,0.909,-5.432,0.732,-2.686
0.038,-0.015,0.917,-4.150,0.061,-2.014
0.043,-0.019,0.925,-1.953,-1.099,-0.977
0.036,-0.022,0.938,1.160,-2.197,0.000
0.053,-0.008,0.948,2.930,-3.296,1.221
0.061,0.001,0.955,3.418,-4.272,1.770
0.065,-0.008,0.975,2.686,-5.005,1.221
0.075,-0.007,0.990,-3.418,-4.272,0.732
0.085,-0.000,0.995,-9.583,-2.380,0.854
0.090,-0.000,1.000,-8.789,-1.221,1.404
0.102,-0.007,1.001,-4.883,-0.488,2.258
0.109,-0.014,0.999,-2.686,-0.183,3.174
0.099,-0.007,0.985,-3.174,-0.305,3.357
0.086,0.007,0.964,-1.343,-1.648,2.625
0.080,0.011,0.959,4.028,-3.906,1.099
0.081,0.002,0.968,6.958,-5.798,-0.793
0.078,0.005,0.966,3.174,-6.226,-2.197
0.074,0.005,0.971,-0.916,-6.042,-3.296
0.071,0.003,0.974,-3.479,-5.859,-3.601
0.080,-0.010,0.987,-2.197,-5.920,-3.052
0.078,-0.017,0.999,-1.099,-5.432,-2.075
0.053,0.000,0.982,-5.066,-4.028,-1.404
0.063,0.014,0.980,-3.662,-4.028,-1.160
0.063,-0.000,0.986,2.747,-4.883,-0.977

0.075,-0.105,1.007,5.493,2.319,-2.014
0.061,-0.123,1.007,6.348,4.578,-0.122
0.073,-0.124,0.979,5.981,5.737,2.991
0.050,-0.158,1.008,10.986,4.761,6.042
0.053,-0.152,0.984,12.695,4.883,11.597
0.059,-0.143,1.003,15.686,5.737,13.916
0.069,-0.093,0.986,18.799,7.263,15.808
0.059,-0.084,0.975,17.517,8.423,15.869
0.060,-0.050,0.976,14.709,7.324,14.832
0.068,-0.039,0.995,14.282,5.737,12.634
0.087,-0.027,1.022,11.719,5.554,11.475
0.113,-0.022,1.027,3.845,8.179,12.207
0.139,-0.016,1.028,-2.380,12.024,14.709
0.155,-0.005,1.013,-8.850,16.479,17.700
0.141,0.019,0.950,-13.062,19.775,19.775
0.149,0.021,0.940,-5.127,17.822,20.020
0.162,0.014,0.918,0.977,15.442,18.799
0.155,0.005,0.903,1.038,12.939,16.357
0.158,0.011,0.859,-5.615,12.329,14.221
0.150,0.018,0.815,-10.498,11.536,13.245
0.168,0.036,0.736,-10.742,10.010,13.123
0.223,0.050,0.656,1.709,8.057,13.611
0.267,0.065,0.559,17.517,8.118,13.916
0.302,0.081,0.422,28.015,12.146,15.320
0.339,0.113,0.189,26.550,19.104,17.639
0.241,0.065,-0.143,15.564,27.161,18.433
0.034,-0.124,-0.626,-8.667,33.875,21.545
-0.266,-0.183,-1.139,-29.602,23.987,35.889
-0.541,-0.116,-1.624,-45.898,-8.911,53.528
-0.686,0.102,-1.997,-39.490,-63.416,60.730
-0.668,0.411,-2.093,-11.841,-135.254,55.420
-0.580,0.886,-1.808,-5.981,-209.778,32.471
-0.367,0.999,-1.143,-26.794,-267.212,-30.579
-0.191,1.261,-0.507,-72.266,-281.128,-62.439
-0.073,1.268,0.246,-129.944,-269.165,-64.392
-0.125,1.173,0.970,-212.585,-246.277,-82.458
-0.237,0.881,1.687,-251.770,-208.374,-90.576
-0.491,0.409,2.283,-238.647,-171.265,-89.600
-0.735,-0.003,2.729,-219.543,-135.986,-79.712
-0.991,-0.292,2.830,-190.430,-69.031,-51.025
-0.847,-0.627,2.768,-138.550,-27.771,-20.264
-0.910,-0.541,2.871,-63.354,-26.489,42.603
-0.761,-0.270,2.884,-11.536,-39.307,96.008
-0.568,0.079,2.862,18.738,-39.368,128.540
-0.433,0.321,2.951,49.377,-37.842,131.836
-0.298,0.474,3.056,65.308,-19.287,122.559
-0.223,0.528,3.153,68.481,18.372,100.708
-0.117,0.476,3.160,68.665,41.565,70.679
-0.008,0.263,3.178,68.176,38.818,28.442
-0.024,0.087,3.193,32.166,49.561,-9.033
-0.061,0.067,3.052,-24.109,74.341,-25.208
-0.121,0.089,2.807,-49.561,97.839,-29.846
-0.151,0.105,2.522,-36.377,111.206,-28.137
-0.156,0.115,2.209,-20.203,121.582,-24.414
-0.193,0.121,1.957,-1.099,124.084,-19.165
-0.180,0.172,1.712,16.418,120.850,-15.686
-0.170,0.222,1.451,36.865,117.920,-15.442
-0.116,0.335,1.215,60.303,111.755,-18.311
-0.050,0.427,1.002,81.482,100.464,-26.367
0.044,0.459,0.846,105.103,86.548,-39.368
0.127,0.504,0.711,117.737,76.111,-52.124
0.140,0.477,0.622,118.958,69.641,-67.688
0.192,0.366,0.504,113.403,67.871,-84.595
0.175,0.377,0.416,107.544,62.927,-61.768
0.159,0.328,0.335,100.647,57.312,-34.058
0.143,0.260,0.295,85.327,52.856,-26.306
0.132,0.189,0.273,75.378,50.110,-12.817
0.116,0.141,0.244,67.444,45.654,2.136
0.084,0.125,0.211,54.382,40.283,13.611
0.047,0.113,0.167,41.992,31.738,17.395
0.023,0.110,0.158,36.499,18.860,15.930
-0.004,0.119,0.139,27.344,7.629,8.362
-0.029,0.123,0.145,17.639,1.953,-2.808
-0.043,0.114,0.181,12.207,-2.075,-12.756
0.010,0.086,0.261,12.939,-10.010,-17.578
0.039,0.064,0.368,12.085,-17.456,-17.517
0.048,0.042,0.450,7.385,-20.996,-16.113
0.053,0.012,0.530,-0.793,-21.301,-13.855
0.056,-0.001,0.609,-7.507,-18.372,-8.789
0.060,-0.014,0.682,-11.902,-14.893,-4.456
0.068,-0.023,0.740,-15.015,-13.428,-5.066
0.076,-0.039,0.788,-14.893,-10.559,-6.348
0.067,-0.061,0.830,-13.977,-8.118,-8.484
0.057,-0.082,0.855,-13.977,-5.859,-10.498
0.030,-0.097,0.883,-15.198,-3.235,-10.803
0.008,-0.077,0.870,-16.907,-1.465,-9.705
-0.015,-0.081,0.871,-8.423,-2.808,-8.545
-0.027,-0.065,0.858,3.052,-5.066,-7.385
-0.010,-0.048,0.854,17.273,-7.507,-6.836
0.007,-0.025,0.846,20.935,-8.301,-6.531
0.021,-0.003,0.842,11.780,-8.179,-6.897
0.028,0.014,0.846,1.770,-7.812,-6.897
0.029,0.031,0.845,-5.371,-6.592,-5.798
0.046,0.035,0.857,-7.568,-5.859,-5.127
0.048,0.023,0.867,-6.897,-6.104,-5.249
0.044,-0.005,0.898,-5.554,-6.409,-4.944
0.048,-0.013,0.916,-5.981,-6.287,-3.418
0.046,-0.014,0.928,-7.080,-6.226,-1.648
0.055,-0.024,0.952,-7.080,-6.531,-0.366
0.055,-0.024,0.959,-8.972,-6.592,0.732
0.056,-0.017,0.963,-9.888,-7.141,1.709
0.062,-0.020,0.972,-6.470,-8.484,2.014
0.074,-0.027,0.991,-1.831,-10.681,1.099
0.088,-0.011,1.000,-2.014,-11.719,-0.427
0.097,0.015,1.000,-4.700,-12.207,-2.441
0.093,0.022,1.006,-4.700,-12.573,-4.395
0.089,0.019,1.016,-6.042,-11.841,-5.310
0.079,0.023,1.005,-10.925,-9.644,-5.005
0.066,0.011,1.001,-11.902,-7.385,-3.601
0.052,-0.002,0.995,-7.507,-6.592,-0.854
0.040,-0.016,0.986,-3.296,-7.019,0.977
0.033,-0.016,0.983,-3.296,-8.667,1.343
0.045,-0.018,0.999,-3.967,-10.437,1.099
0.060,-0.021,1.011,-3.174,-11.597,0.793
0.071,-0.012,1.013,-3.601,-11.902,0.916
0.071,-0.000,1.009,-5.005,-11.963,1.038
0.078,-0.005,1.016,-4.089,-11.597,0.916
0.090,-0.009,1.022,-3.113,-10.925,1.282
0.094,0.003,1.013,-5.493,-9.277,1.953

0.080,0.015,1.014,10.376,-0.488,0.000
0.086,0.021,1.011,6.348,-0.549,-0.427
0.083,0.032,0.999,3.784,-0.244,-0.549
0.073,0.009,1.002,8.606,-0.488,-0.122
0.066,-0.016,1.020,14.221,-1.709,1.099
0.096,-0.022,1.038,12.695,-2.625,2.502
0.090,-0.018,1.018,4.456,-2.075,3.174
0.069,-0.010,0.998,-2.258,0.427,3.967
0.128,0.004,0.971,-3.052,1.892,6.653
0.163,-0.012,0.985,3.662,0.366,8.179
0.172,-0.026,0.961,5.493,0.793,7.874
0.154,-0.024,0.919,3.418,2.869,8.057
0.164,-0.006,0.862,3.601,4.028,8.301
0.167,-0.004,0.819,6.836,3.052,7.141
0.183,-0.015,0.794,10.742,1.099,4.272
0.187,-0.027,0.771,7.080,0.000,1.831
0.194,-0.022,0.734,0.977,0.244,0.427
0.189,-0.013,0.689,-2.441,0.916,-0.427
0.164,-0.010,0.647,-2.319,1.587,-0.305
0.144,0.002,0.593,-3.174,2.808,0.916
0.127,0.005,0.550,-4.700,3.235,2.625
0.120,0.016,0.497,-8.911,3.052,3.906
0.097,-0.005,0.450,-13.306,3.052,3.723
0.066,-0.046,0.395,-19.714,5.066,5.859
0.039,-0.081,0.282,-33.508,5.981,11.536
0.009,-0.130,0.156,-40.344,3.357,17.578
-0.039,-0.165,0.015,-46.997,-2.075,24.353
-0.152,-0.201,-0.167,-55.237,-10.315,34.668
-0.028,-0.164,-0.448,-55.359,-22.095,44.617
-0.041,-0.098,-0.654,-43.884,-43.762,49.438
-0.133,-0.088,-0.924,-24.109,-57.861,61.768
-0.222,0.051,-1.142,-30.090,-78.003,73.303
-0.305,0.338,-1.398,-55.603,-104.309,77.576
-0.262,0.635,-1.377,-47.119,-162.231,72.205
-0.319,0.902,-0.969,-44.128,-207.642,50.232
-0.380,1.088,-0.398,-50.293,-238.586,12.939
-0.438,1.123,0.277,-66.528,-263.184,-32.410
-0.457,1.109,1.155,-98.572,-275.879,-76.172
-0.599,0.929,2.043,-134.827,-263.672,-105.530
-0.683,0.657,2.985,-170.532,-234.924,-118.286
-0.824,0.310,3.735,-190.979,-188.538,-113.831
-0.599,0.167,3.961,-195.862,-121.826,-74.585
-0.644,0.248,4.000,-156.799,-70.313,18.616
-0.726,0.292,3.932,-102.722,-19.043,71.594
-0.679,0.339,3.638,-42.419,4.456,88.257
-0.810,0.252,3.351,0.122,32.715,78.430
-0.766,0.259,2.983,39.368,67.505,89.111
-0.793,0.341,2.630,68.665,90.027,96.741
-0.664,0.321,2.254,64.392,106.567,32.104
-0.496,0.399,1.840,61.340,107.361,-4.883
-0.387,0.441,1.508,72.632,108.643,-16.296
-0.281,0.538,1.226,80.505,103.027,-16.113
-0.219,0.567,1.009,85.938,97.778,-16.663
-0.185,0.482,0.948,80.505,85.999,-22.949
-0.201,0.375,0.913,49.622,63.232,-30.823
-0.250,0.234,0.905,12.573,50.720,-41.565
-0.320,0.131,0.983,-2.686,44.678,-48.767
-0.271,0.068,1.032,6.592,46.326,-48.401
-0.189,0.046,1.098,32.593,49.072,-46.509
-0.112,0.098,1.130,52.002,55.908,-42.297
-0.065,0.114,1.152,71.350,65.918,-40.100
-0.028,0.093,1.120,91.248,76.538,-36.865
0.041,0.088,1.061,104.248,84.778,-31.189
0.087,0.065,1.037,104.248,70.740,-28.687
0.066,0.131,0.982,74.524,59.753,-22.278
0.044,0.183,0.838,34.912,74.890,-17.151
0.009,0.204,0.756,17.944,75.562,-16.052
-0.040,0.162,0.724,16.602,67.200,-17.029
-0.074,0.100,0.744,15.991,57.251,-16.724
-0.096,0.069,0.753,16.052,50.171,-13.245
-0.099,0.037,0.769,23.682,46.448,-8.728
-0.064,-0.002,0.788,31.921,44.556,-4.395
-0.032,-0.013,0.780,31.311,43.823,-0.977
0.008,-0.001,0.759,25.085,42.847,0.488
0.036,0.016,0.723,22.400,40.649,1.038
0.058,0.044,0.684,24.048,36.926,1.343
0.100,0.079,0.665,23.376,32.959,1.099
0.113,0.106,0.636,17.700,29.724,1.038
0.110,0.120,0.613,8.911,26.978,0.427
0.111,0.124,0.610,1.953,25.085,0.000
0.109,0.123,0.614,-0.427,24.170,2.563
0.105,0.098,0.630,-1.038,23.193,5.310
0.109,0.065,0.655,-4.944,22.095,6.287
0.111,0.068,0.650,-11.353,20.996,6.958
0.134,0.066,0.651,-10.071,18.494,6.042
0.152,0.050,0.660,-4.089,14.648,3.723
0.150,0.040,0.678,-3.113,10.681,1.587
0.147,0.049,0.683,-6.042,8.911,0.671
0.141,0.064,0.673,-4.700,8.240,0.244
0.127,0.078,0.678,0.977,5.859,0.732
0.120,0.098,0.678,5.005,2.686,1.221
0.112,0.107,0.678,5.676,-0.610,0.854
0.118,0.111,0.690,4.639,-3.113,0.366
0.138,0.130,0.695,0.488,-4.028,0.854
0.152,0.142,0.714,-2.930,-5.615,-0.183
0.156,0.141,0.746,-6.348,-8.118,-3.296
0.153,0.117,0.799,-7.629,-10.010,-6.348
0.134,0.086,0.844,-8.667,-9.033,-7.629
0.111,0.056,0.888,-9.216,-7.202,-6.592
0.101,0.048,0.909,-9.216,-6.104,-4.883
0.100,0.028,0.947,-5.554,-6.470,-2.808
0.122,0.026,0.970,-1.953,-7.019,-0.671
0.151,0.036,0.992,1.160,-7.141,0.916
0.160,0.047,1.008,-0.977,-7.141,0.793
0.171,0.072,1.002,-8.362,-6.714,-0.183
0.177,0.079,0.997,-8.850,-6.042,-1.099
0.169,0.075,0.998,-2.625,-5.554,-0.916
0.159,0.072,0.990,2.075,-4.150,-0.122
0.152,0.073,0.975,2.502,-2.197,0.916
0.140,0.081,0.951,0.854,-0.610,1.770
0.120,0.079,0.946,1.709,0.183,1.953
0.103,0.082,0.944,0.916,0.427,2.014
0.109,0.079,0.942,-0.549,-0.916,1.343
0.112,0.064,0.952,-0.549,-2.563,0.244
0.120,0.069,0.950,-1.160,-3.540,-0.427
0.147,0.075,0.956,0.122,-4.822,-0.977
0.164,0.073,0.966,4.883,-6.348,-1.526
0.180,0.068,0.973,6.775,-6.958,-2.625
0.172,0.057,0.981,4.639,-6.775,-3.235

0.169,0.073,0.986,4.883,0.488,-3.052
0.188,0.078,0.991,6.042,-0.732,-4.395
0.169,0.078,0.992,8.301,-0.671,-5.798
0.177,0.078,0.984,12.817,-0.244,-6.531
0.175,0.069,0.978,19.470,0.549,-6.653
0.178,0.065,0.972,25.513,1.160,-6.409
0.190,0.060,0.960,29.114,2.075,-6.409
0.204,0.033,0.974,31.555,2.808,-7.080
0.178,0.026,0.982,23.865,4.333,-7.935
0.252,0.018,0.993,18.066,6.409,-8.484
0.213,0.018,0.964,10.559,8.301,-9.888
0.203,0.021,0.958,5.066,9.399,-10.193
0.193,-0.004,0.963,15.869,8.972,-8.545
0.169,-0.029,0.970,27.466,10.437,-9.705
0.158,-0.016,0.942,28.625,13.794,-8.362
0.147,-0.007,0.915,28.687,16.113,-5.859
0.139,-0.025,0.913,30.762,16.846,-4.272
0.128,-0.032,0.902,24.536,18.860,-2.686
0.128,-0.037,0.877,12.451,22.278,0.183
0.139,-0.078,0.834,10.681,26.123,4.211
0.161,-0.100,0.756,11.536,31.433,9.949
0.120,-0.193,0.612,8.911,38.757,17.334
0.065,-0.299,0.379,6.042,44.678,31.128
-0.026,-0.316,0.069,-7.141,43.518,52.673
-0.172,-0.152,-0.368,-25.391,31.250,73.669
-0.381,-0.057,-0.966,-28.809,11.719,81.787
-0.537,0.020,-1.456,-29.297,-25.696,90.027
-0.639,0.218,-1.918,-32.959,-72.083,96.619
-0.611,0.445,-2.078,-54.688,-129.822,94.727
-0.266,0.681,-1.745,-62.256,-203.308,73.975
-0.041,0.833,-1.215,-63.721,-244.751,65.552
0.117,1.106,-0.781,-74.219,-259.766,49.500
0.104,1.216,-0.306,-109.070,-281.494,9.277
-0.082,1.343,0.251,-148.743,-284.912,-26.917
-0.197,1.272,0.768,-173.401,-265.869,-51.636
-0.348,0.985,1.406,-192.322,-248.108,-73.303
-0.477,0.641,2.024,-222.656,-214.600,-75.623
-0.869,0.212,2.559,-264.771,-169.556,-57.800
-0.791,0.176,2.729,-253.052,-134.766,-1.892
-0.949,0.102,3.280,-149.841,-154.480,82.825
-0.910,0.181,3.476,-69.458,-130.371,118.835
-0.856,0.196,3.650,-17.151,-89.417,130.310
-0.806,0.113,3.713,19.653,-56.030,119.812
-0.881,0.097,3.732,54.382,-15.503,108.765
-0.746,0.009,3.630,60.486,16.846,63.232
-0.613,0.060,3.490,71.045,32.227,38.147
-0.521,0.132,3.245,92.102,72.327,40.161
-0.451,0.120,2.995,126.160,104.736,52.979
-0.409,0.108,2.720,146.118,132.019,63.171
-0.365,0.136,2.425,137.085,148.987,67.627
-0.323,0.217,2.077,101.563,152.649,57.617
-0.302,0.369,1.748,59.326,146.973,38.330
-0.271,0.483,1.434,48.157,137.451,19.836
-0.219,0.564,1.152,51.941,129.822,3.723
-0.170,0.631,0.882,52.490,121.155,-10.742
-0.107,0.683,0.678,53.833,109.436,-26.062
-0.034,0.667,0.527,56.091,96.863,-44.067
0.031,0.639,0.415,54.443,86.914,-61.462
0.090,0.607,0.355,51.331,79.956,-76.782
0.117,0.540,0.317,53.406,77.454,-87.280
0.140,0.481,0.298,64.270,79.041,-88.257
0.147,0.407,0.301,76.782,77.271,-84.473
0.152,0.308,0.320,84.900,78.186,-75.012
0.148,0.225,0.338,83.252,77.576,-58.838
0.136,0.173,0.280,67.017,69.519,-42.786
0.116,0.155,0.314,51.331,46.082,-34.363
0.098,0.125,0.336,40.894,31.189,-29.236
0.076,0.108,0.366,30.640,18.738,-27.405
0.050,0.071,0.408,14.404,5.310,-29.968
0.037,0.053,0.497,3.296,-7.446,-33.142
0.039,0.041,0.570,2.991,-14.954,-34.058
0.048,0.018,0.636,7.324,-16.296,-34.607
0.047,-0.030,0.710,2.869,-12.024,-35.828
0.045,-0.057,0.735,-11.353,-3.296,-35.095
0.043,-0.074,0.755,-21.179,6.592,-27.832
0.036,-0.071,0.747,-26.123,22.034,-12.756
0.023,-0.098,0.765,-19.287,24.475,-8.606
0.038,-0.101,0.775,-12.390,23.193,-4.883
0.045,-0.105,0.784,-4.944,22.095,-2.441
0.029,-0.109,0.813,1.343,15.686,-4.639
0.039,-0.085,0.820,-4.395,15.076,-2.563
0.022,-0.073,0.832,-14.221,12.939,-2.563
0.017,-0.080,0.866,-15.198,7.996,-4.883
0.022,-0.107,0.911,-11.047,5.310,-4.700
0.040,-0.102,0.923,-11.536,5.493,-3.418
0.068,-0.077,0.927,-9.521,5.249,-3.052
0.090,-0.067,0.929,-4.211,6.287,-2.563
0.103,-0.048,0.921,-2.197,5.676,-3.296
0.113,-0.032,0.915,-6.592,5.371,-3.052
0.100,-0.004,0.883,-13.245,6.226,-1.953
0.092,0.028,0.856,-12.268,5.249,-1.160
0.098,0.068,0.841,-4.822,2.502,-0.061
0.114,0.093,0.842,2.380,-0.793,1.038
0.116,0.101,0.848,4.456,-2.869,1.099
0.117,0.098,0.867,3.967,-3.845,1.404
0.108,0.109,0.876,3.418,-2.747,2.258
0.106,0.123,0.884,0.916,-1.465,3.174
0.120,0.141,0.892,-3.601,-0.793,3.174
0.129,0.143,0.918,-6.470,-0.793,2.563
0.139,0.140,0.925,-10.559,-0.549,0.793
0.150,0.118,0.940,-10.681,-1.526,-1.953
0.161,0.078,0.961,-7.446,-3.418,-3.784
0.129,0.058,0.959,-7.690,-5.005,-4.333
0.142,0.040,0.972,-3.357,-6.653,-4.272
0.119,0.021,0.996,-1.221,-7.812,-3.906
0.105,0.035,0.993,-9.583,-7.080,-3.113
0.095,0.048,0.986,-12.146,-6.836,-2.441
0.083,0.044,0.990,-5.920,-7.263,-2.686
0.080,0.022,1.008,0.977,-8.362,-2.991
0.093,0.022,1.004,-0.610,-7.874,-2.686
0.117,0.038,0.993,-5.066,-7.446,-2.197
0.133,0.036,0.989,0.305,-7.629,-2.136
0.144,0.026,0.997,7.751,-8.789,-2.197
0.156,0.023,0.998,7.874,-8.667,-2.197
0.157,0.033,0.991,2.014,-7.080,-1.770
0.143,0.051,0.970,-4.700,-5.371,-1.892
0.129,0.067,0.942,-6.897,-4.333,-2.563
0.129,0.073,0.926,-3.418,-4.211,-3.357
0.129,0.062,0.923,1.953,-5.127,-4.150

0.222,0.032,1.060,1.465,14.099,4.517
0.225,0.031,1.040,5.005,14.954,3.601
0.226,0.049,1.003,2.869,16.296,2.197
0.208,0.044,0.985,0.061,17.639,0.183
0.199,0.043,0.967,-0.122,18.066,-0.732
0.193,0.017,0.984,3.723,17.578,-1.282
0.184,-0.020,0.987,4.944,18.250,-0.854
0.150,-0.032,0.975,2.625,18.982,1.709
0.173,-0.028,0.943,4.211,19.043,4.150
0.167,-0.051,0.942,12.512,18.066,5.981
0.182,-0.036,0.926,18.738,16.479,7.996
0.203,-0.003,0.896,17.761,16.235,8.972
0.218,0.005,0.862,17.822,16.479,9.155
0.222,0.018,0.840,18.494,16.357,10.742
0.230,0.042,0.810,14.038,17.212,11.353
0.237,0.055,0.784,10.010,17.456,10.864
0.228,0.089,0.743,2.075,17.700,8.972
0.229,0.109,0.719,-2.563,17.578,6.287
0.241,0.112,0.708,-0.610,17.273,3.662
0.239,0.111,0.704,-0.488,16.724,1.892
0.228,0.098,0.695,-3.601,17.090,0.854
0.204,0.078,0.659,-8.362,18.494,1.038
0.189,0.050,0.617,-11.902,18.738,2.625
0.197,0.001,0.547,-14.771,18.066,6.165
0.218,-0.025,0.429,-23.376,16.785,11.230
0.165,0.039,0.256,-33.508,13.733,16.418
0.128,-0.053,-0.026,-27.405,-3.113,11.475
-0.002,-0.039,-0.254,-41.260,-38.330,1.099
-0.190,0.123,-0.839,-106.384,-32.532,1.099
-0.401,0.272,-1.367,-166.687,-62.256,-4.517
-0.567,0.293,-1.863,-239.624,-100.098,-4.944
-0.578,0.269,-2.030,-320.251,-146.240,7.080
-0.459,0.337,-1.749,-411.560,-206.482,14.038
-0.394,0.486,-1.354,-490.784,-237.000,32.104
-0.331,0.724,-0.871,-482.178,-238.464,61.279
-0.303,0.984,-0.420,-357.056,-242.371,75.317
-0.310,1.284,0.269,-190.735,-267.700,58.655
-0.448,1.387,1.134,-36.377,-274.902,23.376
-0.386,1.124,1.986,51.514,-231.445,-8.789
-0.616,0.939,2.705,94.360,-196.228,29.663
-0.448,0.743,3.281,100.098,-198.425,91.736
-0.505,0.693,3.507,78.491,-133.606,123.535
-0.692,0.554,3.693,86.670,-75.195,120.605
-0.928,0.369,3.933,165.833,-47.485,126.648
-0.740,0.022,3.539,338.013,-63.904,166.443
-0.788,-0.168,3.421,367.676,-41.077,163.391
-0.796,-0.371,3.517,293.213,10.193,98.145
-0.564,-0.295,3.199,193.237,46.326,84.717
-0.407,-0.140,3.010,129.761,67.261,85.510
-0.300,0.070,2.786,90.942,96.130,79.041
-0.141,0.270,2.459,77.087,122.559,74.158
-0.019,0.413,2.185,81.848,125.305,64.880
0.043,0.468,1.955,75.012,119.690,42.297
0.049,0.516,1.691,51.147,113.037,13.489
0.035,0.606,1.410,24.292,104.248,-10.559
0.006,0.635,1.112,9.583,94.666,-30.029
0.030,0.628,0.899,7.263,82.214,-47.546
0.060,0.602,0.741,2.686,68.115,-62.622
0.044,0.552,0.609,1.953,54.688,-73.547
0.049,0.457,0.547,7.751,46.631,-84.534
0.060,0.363,0.490,10.498,43.213,-90.576
0.054,0.348,0.446,9.277,41.138,-88.013
0.039,0.300,0.430,10.620,42.725,-89.966
0.034,0.260,0.438,24.597,48.157,-92.529
0.056,0.239,0.437,52.307,53.833,-79.346
0.082,0.221,0.464,76.477,60.608,-60.608
0.097,0.198,0.504,83.130,71.472,-41.931
0.109,0.159,0.535,77.209,82.886,-24.597
0.108,0.106,0.555,60.181,92.957,-9.888
0.106,0.058,0.592,32.715,96.619,-1.404
0.105,0.019,0.599,12.817,89.783,3.418
0.076,-0.032,0.630,-6.470,82.336,3.662
0.035,-0.061,0.636,-14.893,72.266,0.183
0.044,-0.082,0.607,-34.729,63.477,-5.066
-0.016,-0.034,0.680,-75.500,69.092,-14.893
0.015,-0.033,0.655,-66.101,62.378,-20.874
0.025,-0.015,0.648,-48.462,50.842,-22.827
0.050,0.051,0.669,-44.556,45.227,-25.208
0.085,0.044,0.667,-25.391,26.001,-25.574
0.103,0.032,0.657,-21.545,21.729,-20.264
0.114,0.032,0.686,-27.893,22.034,-16.113
0.134,0.009,0.714,-25.513,17.456,-10.681
0.126,0.016,0.764,-22.888,14.404,-7.019
0.138,0.009,0.800,-20.752,11.414,-3.784
0.152,0.003,0.814,-17.273,11.475,-1.038
0.145,-0.002,0.810,-14.465,14.221,1.038
0.134,-0.008,0.805,-11.108,16.785,2.441
0.127,-0.001,0.784,-11.353,17.883,3.540
0.118,0.030,0.751,-12.146,16.907,4.822
0.106,0.061,0.724,-6.409,12.451,5.493
0.112,0.084,0.728,0.793,5.798,5.493
0.134,0.109,0.752,0.916,-0.793,4.517
0.160,0.140,0.785,-5.615,-6.775,2.625
0.191,0.160,0.807,-6.958,-11.841,0.366
0.205,0.160,0.844,-3.540,-15.930,-1.465
0.227,0.148,0.884,-2.319,-17.151,-2.197
0.233,0.125,0.912,-4.333,-15.869,-1.526
0.231,0.139,0.912,-9.216,-12.207,1.099
0.232,0.154,0.926,-14.221,-9.583,3.906
0.246,0.181,0.929,-12.634,-8.667,5.554
0.238,0.171,0.937,-4.456,-7.690,4.700
0.230,0.165,0.931,-0.671,-6.775,3.601
0.221,0.166,0.927,-1.038,-6.897,3.174
0.204,0.163,0.922,0.427,-7.507,2.380
0.190,0.160,0.915,3.784,-8.850,2.014
0.179,0.157,0.908,8.118,-10.193,1.831
0.187,0.143,0.959,14.404,-11.780,1.465
0.178,0.117,0.973,9.094,-11.292,1.282
0.176,0.130,0.972,-5.127,-8.484,1.892
0.183,0.139,0.966,-11.780,-7.080,1.648
0.182,0.129,0.983,-6.165,-7.812,1.221
0.201,0.115,1.005,2.380,-8.911,0.732
0.214,0.104,1.030,6.409,-9.583,0.122
0.228,0.101,1.039,7.141,-9.216,-0.244
0.227,0.089,1.047,8.606,-7.874,-0.244
0.223,0.090,1.039,6.592,-6.042,0.061
0.208,0.111,1.005,0.671,-3.784,1.099
0.199,0.137,0.970,-1.709,-2.930,1.831
0.189,0.140,0.950,-0.366,-3.357,1.526

0.237,-0.006,1.139,10.254,12.390,-5.859
0.241,-0.012,1.128,14.343,16.235,-4.639
0.252,0.011,1.091,19.165,19.897,-2.563
0.237,0.011,1.066,26.428,22.400,-0.610
0.213,0.028,1.023,35.217,23.926,-0.916
0.192,0.022,0.993,34.424,24.048,-2.319
0.165,0.031,0.968,25.085,23.437,-2.991
0.147,0.022,0.943,20.752,23.437,-3.113
0.152,0.006,0.939,21.240,22.522,-3.235
0.163,0.000,0.925,19.287,23.010,-2.747
0.192,0.024,0.925,15.076,26.184,-1.770
0.228,0.023,0.914,20.996,26.428,-0.549
0.263,0.016,0.923,30.457,25.085,0.671
0.287,0.018,0.911,31.677,27.222,1.282
0.294,0.016,0.851,22.034,31.372,2.380
0.292,0.029,0.822,12.329,33.508,3.845
0.291,0.038,0.768,4.456,34.058,4.578
0.280,0.043,0.723,2.808,32.898,3.845
0.269,0.055,0.675,3.723,30.884,2.808
0.267,0.053,0.626,5.127,28.625,2.014
0.267,0.047,0.591,6.653,26.794,2.014
0.243,0.025,0.526,1.892,26.123,2.441
0.238,0.005,0.453,-9.155,27.161,4.700
0.200,-0.011,0.327,-24.048,29.785,9.277
0.187,0.044,0.117,-39.490,31.616,16.479
0.086,-0.044,-0.069,-59.082,29.968,21.790
-0.073,-0.117,-0.360,-80.017,28.015,25.818
-0.261,-0.255,-0.746,-96.069,19.531,32.166
-0.454,-0.263,-1.079,-90.576,-12.939,42.480
-0.688,-0.486,-1.547,-25.879,-105.713,29.541
-0.634,-0.269,-1.832,-54.077,-176.514,34.241
-0.344,0.023,-1.828,-147.766,-176.575,52.917
-0.198,0.323,-1.509,-189.026,-226.501,49.927
-0.006,0.658,-1.176,-221.252,-270.447,41.626
0.108,0.846,-0.676,-261.169,-291.077,21.729
0.064,1.083,-0.104,-283.813,-295.471,6.592
-0.051,1.221,0.426,-316.711,-274.170,-2.808
-0.260,1.265,1.067,-347.107,-236.084,-9.155
-0.756,1.120,1.716,-372.314,-186.218,-10.803
-0.844,1.065,2.120,-341.797,-145.752,14.832
-1.159,0.923,2.622,-185.669,-193.542,112.976
-1.149,0.962,3.176,-14.954,-243.286,185.059
-1.250,0.928,3.347,101.196,-212.646,212.341
-1.061,1.008,3.462,167.480,-164.917,219.177
-0.874,0.961,3.555,246.765,-130.920,224.365
-0.669,0.804,3.401,353.088,-105.835,229.187
-0.652,0.845,3.271,372.192,-73.303,212.952
-0.562,0.541,3.154,330.627,-41.138,140.381
-0.589,0.479,3.101,235.046,-2.441,69.458
-0.554,0.280,2.918,165.344,41.626,35.889
-0.607,0.161,2.753,113.953,91.125,22.827
-0.579,0.091,2.540,80.261,124.634,25.330
-0.568,-0.009,2.309,67.749,140.381,27.771
-0.556,-0.069,2.067,62.012,151.184,23.987
-0.492,-0.047,1.866,48.279,149.658,13.855
-0.432,0.008,1.691,42.358,139.771,-1.282
-0.333,0.118,1.508,46.448,134.583,-15.869
-0.235,0.222,1.361,56.274,131.775,-27.466
-0.158,0.275,1.209,68.909,128.296,-38.269
-0.087,0.322,1.079,74.890,125.427,-48.157
-0.015,0.358,0.977,70.068,126.465,-57.007
0.047,0.384,0.882,59.570,133.606,-64.697
0.116,0.405,0.793,49.011,144.470,-70.374
0.140,0.390,0.699,46.143,157.898,-73.975
0.136,0.386,0.600,41.870,175.842,-70.801
0.141,0.381,0.389,27.405,192.017,-65.796
0.140,0.328,0.185,26.672,195.251,-56.763
0.093,0.303,0.106,24.353,179.810,-42.358
0.066,0.174,-0.081,16.357,158.508,-32.104
0.031,0.109,-0.189,-34.424,144.104,-27.161
0.004,0.107,-0.027,-96.252,134.827,-33.203
-0.003,0.099,0.109,-85.876,98.572,-37.781
0.002,0.079,0.196,-86.975,70.740,-41.809
0.034,0.051,0.269,-95.520,63.110,-51.025
0.077,0.029,0.301,-58.716,40.710,-51.453
0.095,-0.028,0.356,-43.579,33.508,-46.692
0.101,-0.050,0.429,-37.415,30.884,-39.124
0.092,-0.053,0.464,-33.875,29.114,-25.574
0.100,-0.055,0.498,-28.809,33.386,-10.925
0.125,-0.050,0.545,-21.545,36.865,1.038
0.135,-0.018,0.576,-18.616,39.917,8.972
0.164,0.005,0.562,-14.526,39.368,13.000
0.180,0.023,0.656,-16.174,34.607,12.817
0.184,0.051,0.655,-7.385,24.963,5.371
0.199,0.053,0.739,2.075,10.681,-2.686
0.210,0.039,0.807,14.709,-1.526,-8.301
0.208,0.004,0.882,16.235,-15.442,-13.367
0.222,0.005,0.912,-4.456,-15.503,-13.916
0.227,-0.004,0.889,-22.156,-13.123,-11.780
0.242,0.020,0.925,-28.320,-9.766,-7.080
0.263,0.062,0.884,-23.315,-6.531,-0.427
0.255,0.108,0.843,-16.968,-2.258,2.991
0.252,0.143,0.812,-9.766,0.427,3.235
0.250,0.159,0.799,-3.784,1.038,2.258
0.256,0.162,0.788,0.732,-0.061,0.305
0.278,0.149,0.790,4.089,-3.540,-1.282
0.290,0.122,0.816,3.906,-7.996,-2.075
0.299,0.120,0.812,-2.319,-11.230,-1.953
0.296,0.116,0.807,-5.615,-12.695,-1.343
0.286,0.101,0.814,-6.226,-12.939,-0.244
0.271,0.117,0.793,-10.864,-11.658,1.282
0.250,0.141,0.774,-11.475,-11.963,1.526
0.217,0.148,0.788,-5.554,-15.137,0.610
0.213,0.151,0.823,-5.432,-19.409,-1.160
0.214,0.163,0.846,-13.428,-22.949,-3.784
0.231,0.164,0.878,-16.235,-27.222,-7.202
0.253,0.153,0.922,-17.578,-31.799,-10.742
0.273,0.134,0.942,-21.118,-34.058,-13.428
0.279,0.127,0.998,-24.231,-33.691,-13.672
0.278,0.125,0.998,-20.203,-29.907,-11.780
0.266,0.130,0.999,-10.742,-26.672,-9.705
0.247,0.143,1.003,-4.089,-24.231,-7.812
0.228,0.138,1.011,3.845,-22.034,-6.531
0.225,0.109,1.045,8.545,-20.325,-5.493
0.232,0.125,1.029,4.700,-17.456,-4.517
0.236,0.128,1.057,3.235,-15.808,-4.944
0.234,0.123,1.066,5.005,-13.794,-6.226
0.240,0.128,1.079,8.301,-11.414,-6.958
0.245,0.134,1.082,9.399,-8.972,-7.507

0.208,-0.070,0.872,-31.982,-7.019,0.427
0.240,-0.033,0.870,-19.592,-11.169,1.831
0.264,0.004,0.880,0.183,-16.357,1.770
0.309,0.021,0.917,19.714,-20.386,0.122
0.331,-0.004,0.974,33.264,-22.034,-1.709
0.345,-0.053,1.032,34.180,-19.409,-2.319
0.371,-0.075,1.069,17.456,-12.634,-0.854
0.354,-0.051,1.052,-11.353,-4.089,0.916
0.330,-0.031,1.025,-25.452,1.648,1.526
0.308,-0.032,1.002,-16.663,3.784,1.465
0.290,-0.045,0.987,-4.517,3.479,0.854
0.291,-0.047,0.973,-0.671,2.808,-0.244
0.288,-0.049,0.960,-3.601,3.235,-0.916
0.289,-0.053,0.944,-6.165,3.723,-1.099
0.291,-0.051,0.922,-5.798,3.784,-0.977
0.293,-0.040,0.891,-3.784,3.784,-0.549
0.293,-0.038,0.870,2.747,3.296,-0.061
0.294,-0.043,0.853,8.911,2.502,0.488
0.295,-0.067,0.846,9.033,2.686,1.404
0.288,-0.066,0.818,-5.493,4.089,2.502
0.270,-0.053,0.780,-25.452,6.226,3.174
0.254,-0.040,0.702,-34.790,6.409,3.174
0.256,-0.056,0.654,-27.893,3.174,2.930
0.294,-0.085,0.587,-17.700,-1.709,3.540
0.313,-0.052,0.507,-19.531,-5.737,4.333
0.301,-0.091,0.376,-28.381,-7.263,5.005
0.267,-0.033,0.136,-39.612,-7.996,13.062
0.106,-0.054,-0.185,-37.964,-10.559,19.897
-0.120,-0.080,-0.515,5.554,-25.513,27.100
-0.203,0.033,-1.006,106.140,-57.312,34.241
-0.435,0.105,-1.442,224.182,-102.539,37.598
-0.473,0.241,-1.711,303.467,-155.090,39.734
-0.450,0.415,-1.852,349.915,-226.868,23.254
-0.195,0.713,-1.768,260.254,-280.762,-24.353
-0.068,1.260,-1.199,19.836,-276.917,-41.992
-0.045,1.387,-0.476,-139.099,-283.997,-73.242
-0.249,1.422,0.146,-192.505,-303.467,-119.080
-0.408,1.498,0.648,-217.163,-310.120,-160.706
-0.558,1.436,1.254,-241.577,-303.955,-198.547
-0.923,1.023,2.097,-270.813,-286.682,-228.088
-1.014,0.145,2.755,-322.327,-254.150,-235.229
-1.418,-0.379,3.613,-385.498,-249.512,-133.240
-1.475,-0.420,3.960,-438.538,-236.511,-25.818
-1.577,-0.369,4.000,-408.020,-170.105,38.757
-1.606,-0.399,3.990,-280.518,-113.220,68.420
-1.493,-0.391,3.998,-114.441,-79.590,99.792
-1.280,-0.272,3.816,30.090,-38.391,140.442
-1.174,-0.311,3.530,108.032,8.972,130.554
-1.038,-0.141,3.212,119.019,54.932,83.740
-0.854,-0.079,2.966,130.981,89.966,78.735
-0.723,-0.039,2.706,135.925,121.216,83.191
-0.551,0.109,2.337,110.535,158.142,88.562
-0.444,0.259,1.991,88.562,190.063,94.116
-0.346,0.341,1.606,74.463,202.637,87.463
-0.231,0.419,1.297,58.533,199.890,66.895
-0.114,0.472,1.022,45.044,186.707,43.945
-0.024,0.490,0.809,39.917,166.748,26.855
0.034,0.472,0.626,35.095,145.020,13.062
0.092,0.458,0.483,29.663,122.009,-0.610
0.128,0.444,0.382,29.907,98.938,-12.573
0.183,0.391,0.348,36.682,81.116,-23.682
0.217,0.357,0.335,43.396,65.063,-30.029
0.237,0.339,0.338,51.331,51.636,-32.532
0.247,0.317,0.359,61.829,43.884,-34.546
0.253,0.272,0.413,69.580,42.114,-36.316
0.232,0.242,0.455,68.481,45.959,-36.621
0.214,0.191,0.506,61.707,56.152,-39.124
0.204,0.114,0.543,49.072,70.251,-41.504
0.171,0.089,0.555,26.245,77.698,-34.119
0.128,0.092,0.554,3.418,83.130,-24.475
0.094,0.085,0.550,-10.803,87.830,-13.489
0.070,0.081,0.566,-14.282,82.092,-6.165
0.056,0.068,0.597,-12.451,71.289,-4.272
0.051,0.046,0.627,-8.118,60.913,-5.615
0.062,0.024,0.686,-5.493,49.988,-8.789
0.076,0.011,0.717,-12.085,39.246,-12.939
0.092,0.019,0.760,-17.334,26.672,-17.578
0.110,0.007,0.807,-19.531,16.235,-21.667
0.110,-0.005,0.836,-20.020,8.972,-24.902
0.083,-0.027,0.857,-14.587,2.869,-26.978
0.049,-0.042,0.876,-4.578,-0.732,-27.100
0.040,-0.053,0.873,5.249,-3.052,-26.489
0.045,-0.059,0.885,18.677,-5.066,-24.109
0.062,-0.052,0.893,32.776,-5.798,-20.569
0.072,-0.089,0.937,39.612,-5.005,-17.090
0.093,-0.062,0.916,22.583,-1.587,-13.794
0.098,-0.021,0.891,0.916,-0.061,-11.719
0.095,0.002,0.877,-5.981,-1.770,-11.963
0.100,0.026,0.872,-8.728,-2.869,-12.146
0.098,0.058,0.865,-9.521,-3.418,-12.451
0.094,0.064,0.876,-8.850,-3.601,-12.512
0.089,0.048,0.898,-5.310,-3.357,-12.207
0.105,0.004,0.945,-2.869,-2.930,-10.803
0.120,-0.008,0.981,-10.925,-0.244,-8.057
0.130,0.029,0.977,-22.705,3.296,-5.737
0.140,0.038,0.984,-16.785,3.723,-5.188
0.143,0.029,0.998,-4.578,4.028,-4.822
0.150,0.039,0.980,2.258,4.028,-4.578
0.156,0.040,0.964,7.202,3.784,-4.333
0.153,0.029,0.951,9.216,3.479,-4.517
0.130,0.040,0.919,4.517,2.319,-5.005
0.119,0.059,0.901,2.502,-0.671,-5.737
0.118,0.080,0.893,3.967,-4.272,-7.141
0.127,0.066,0.910,9.705,-8.057,-8.850
0.135,0.025,0.956,10.986,-10.315,-10.254
0.127,0.010,0.971,0.977,-9.277,-10.132
0.120,0.015,0.967,-6.592,-8.057,-9.460
0.109,0.010,0.965,-5.188,-7.263,-8.301
0.096,0.005,0.970,0.427,-6.714,-6.836
0.092,0.002,0.973,6.592,-6.165,-5.432
0.101,-0.003,0.983,10.803,-5.493,-4.211
0.119,-0.021,0.993,12.451,-4.578,-3.357
0.130,-0.046,1.008,9.644,-2.930,-1.770
0.126,-0.035,0.999,3.418,-0.610,-0.427
0.138,-0.027,0.987,2.502,1.953,0.488
0.131,-0.017,0.975,2.991,3.662,0.488
0.120,-0.010,0.960,1.221,4.456,-0.610
0.117,-0.015,0.955,-0.183,4.333,-1.587
0.108,-0.022,0.948,-1.343,2.808,-3.235

0.233,-0.034,1.012,3.174,12.512,6.897
0.226,-0.041,1.011,7.324,12.634,6.653
0.222,-0.043,0.996,8.789,13.611,6.653
0.226,-0.048,0.992,11.597,13.733,7.141
0.238,-0.056,0.983,11.963,13.611,7.507
0.245,-0.050,0.971,8.423,13.367,7.324
0.242,-0.043,0.959,3.174,12.878,6.714
0.242,-0.027,0.949,1.282,12.146,5.737
0.241,-0.022,0.950,4.395,9.888,4.272
0.236,-0.036,0.964,8.789,7.019,2.441
0.237,-0.059,0.992,9.705,5.615,1.160
0.238,-0.056,0.996,5.493,6.226,1.343
0.251,-0.064,1.001,6.165,7.019,2.319
0.264,-0.066,1.001,9.033,7.996,3.479
0.261,-0.055,0.993,8.362,9.033,4.333
0.281,-0.034,0.979,8.301,10.315,4.639
0.287,-0.031,0.957,7.935,12.024,4.395
0.279,-0.031,0.940,10.315,13.245,4.150
0.291,-0.019,0.910,12.512,14.404,3.418
0.299,-0.014,0.880,13.367,14.954,2.380
0.290,-0.014,0.858,11.047,14.771,1.038
0.312,-0.034,0.861,3.784,15.686,0.671
0.303,0.010,0.815,-12.024,18.616,-0.671
0.298,0.035,0.776,-22.461,22.583,-3.418
0.307,0.015,0.687,-31.982,28.564,-3.723
0.298,-0.024,0.491,-60.547,39.001,1.099
0.156,-0.150,0.259,-87.036,48.584,11.292
-0.132,-0.192,-0.081,-119.202,50.049,23.071
-0.269,-0.258,-0.491,-168.274,24.902,14.954
-0.532,-0.372,-0.958,-235.840,0.305,9.399
-0.777,-0.429,-1.699,-276.001,-10.193,24.048
-0.790,-0.490,-2.235,-285.767,-94.788,23.437
-0.663,-0.481,-2.400,-263.123,-193.604,21.851
-0.431,-0.313,-2.297,-198.120,-270.386,30.579
-0.213,0.135,-1.989,-164.307,-320.374,37.292
0.050,0.660,-1.454,-173.645,-343.201,39.429
0.264,1.091,-0.876,-199.951,-359.558,19.592
0.052,1.395,-0.123,-238.586,-362.549,-13.000
-0.332,1.599,0.732,-282.410,-346.863,-47.974
-1.086,1.565,1.682,-314.758,-313.354,-72.998
-1.275,1.427,2.476,-361.816,-254.517,-69.092
-1.514,1.489,2.998,-325.623,-247.192,47.668
-1.372,1.485,3.698,-230.530,-244.202,159.058
-1.246,1.490,3.904,-113.403,-145.691,200.073
-0.952,1.429,4.000,-25.513,-100.159,189.209
-0.832,1.355,3.908,42.358,-37.659,155.090
-0.729,1.347,3.513,119.202,36.072,151.367
-0.624,1.276,3.184,189.453,76.416,155.701
-0.567,1.165,2.717,241.272,91.064,152.466
-0.562,0.968,2.391,218.140,108.521,87.585
-0.651,0.818,2.085,160.217,124.268,34.180
-0.601,0.691,1.768,119.751,132.690,22.461
-0.520,0.676,1.481,102.966,136.047,15.869
-0.395,0.680,1.277,103.333,139.221,14.648
-0.254,0.665,1.161,113.708,131.042,6.104
-0.160,0.585,1.108,117.371,114.685,-5.981
-0.111,0.473,1.090,108.643,98.022,-15.930
-0.130,0.342,1.091,91.858,84.106,-19.470
-0.137,0.287,1.010,60.730,80.078,-18.921
-0.113,0.286,0.862,33.020,79.468,-23.621
-0.134,0.261,0.751,25.208,74.463,-33.936
-0.145,0.248,0.679,37.048,66.589,-40.527
-0.128,0.224,0.609,59.021,60.608,-49.377
-0.097,0.246,0.529,72.021,61.340,-57.190
-0.055,0.260,0.477,68.420,62.012,-57.129
-0.023,0.270,0.461,57.007,61.096,-52.795
-0.006,0.272,0.484,49.133,62.012,-47.363
-0.001,0.273,0.500,38.818,67.078,-42.297
0.015,0.267,0.508,31.250,73.547,-38.757
0.052,0.218,0.508,27.527,79.102,-34.546
0.035,0.233,0.689,19.348,88.257,-30.701
0.065,0.148,0.641,20.325,97.473,-27.588
0.077,0.191,0.829,9.583,106.201,-23.865
0.089,0.131,0.799,32.349,112.244,-21.606
0.120,0.096,0.790,54.749,107.727,-12.878
0.139,0.106,0.779,51.147,99.731,-6.287
0.136,0.112,0.761,46.265,91.370,-2.075
0.133,0.141,0.687,33.142,81.177,0.061
0.123,0.206,0.649,24.475,65.918,-3.784
0.109,0.212,0.630,26.550,49.316,-10.437
0.116,0.216,0.652,34.363,34.302,-18.311
0.149,0.195,0.702,38.330,22.034,-24.353
0.165,0.173,0.714,23.987,13.611,-28.809
0.170,0.156,0.752,9.888,7.874,-31.921
0.188,0.152,0.747,4.028,6.897,-31.677
0.167,0.132,0.764,3.906,5.981,-30.762
0.159,0.119,0.762,4.944,4.578,-28.503
0.149,0.129,0.768,6.531,3.906,-25.452
0.143,0.113,0.765,10.742,3.601,-23.315
0.158,0.115,0.765,15.747,3.845,-18.372
0.199,0.091,0.842,23.376,2.380,-14.160
0.224,0.078,0.858,16.785,-0.671,-13.428
0.238,0.081,0.856,4.150,-0.916,-12.756
0.251,0.089,0.869,1.221,-1.526,-12.207
0.227,0.102,0.871,-0.610,-1.892,-12.268
0.204,0.110,0.864,-3.540,-2.686,-13.000
0.181,0.110,0.861,-3.174,-3.662,-13.916
0.158,0.087,0.879,2.747,-5.005,-13.611
0.153,0.070,0.883,9.583,-5.920,-13.245
0.151,0.028,0.908,19.958,-6.714,-11.658
0.158,-0.005,0.931,25.513,-7.141,-9.521
0.152,-0.000,0.933,24.780,-3.052,-4.578
0.156,-0.016,0.952,24.048,-1.770,-1.648
0.141,-0.007,0.944,20.203,-4.211,-0.366
0.149,0.010,0.943,20.752,-4.456,2.625
0.148,0.044,0.935,21.729,-5.920,3.296
0.146,0.072,0.934,18.616,-6.897,2.441
0.149,0.106,0.924,7.935,-7.874,0.671
0.152,0.129,0.932,-2.197,-9.583,-1.648
0.155,0.135,0.960,-4.944,-11.658,-3.845
0.164,0.144,0.972,-6.531,-11.780,-5.432
0.184,0.143,0.993,-3.906,-11.597,-6.775
0.199,0.111,1.026,3.113,-10.315,-7.080
0.202,0.075,1.055,8.362,-7.141,-6.531
0.208,0.043,1.080,9.216,-2.563,-5.127
0.202,0.035,1.066,4.883,2.869,-3.174
0.203,0.036,1.050,4.028,6.592,-1.343
0.198,0.037,1.032,7.935,8.301,-0.305
0.194,0.047,1.013,13.306,8.545,-0.427